"","accelY","accelZ","accelMag","gyroX","risk","step"
"1",8.493786812,-0.34623,9.264358923,-0.488159567,0,0
"2",8.358169556,-0.484991461,9.500610734,-0.472171813,0,0
"3",8.427624703,-0.051941987,9.613261012,-0.450854808,0,4
"4",7.974966049,0.080831908,8.993806191,-0.413550288,0,0
"5",6.050118923,-0.0916095,6.799476143,-0.19185333,0,0
"6",7.950716496,-0.545914769,8.636647197,-0.069280535,0,0
"7",10.48853874,-2.331551552,11.33538493,0.054358315,0,0
"8",9.059760094,-1.901795149,9.59562302,0.31122765,0,0
"9",7.621551037,1.223555565,8.107437167,0.593678236,0,0
"10",6.488407135,2.458038569,8.521519068,0.625653744,0,0
"11",7.806865692,-1.73848486,10.12431766,0.464710146,0,0
"12",12.0226984,-2.887345791,13.43362044,0.706658363,0,0
"13",12.01985455,-0.008382568,12.64205114,0.93475008,0,0
"14",11.58680534,-0.195343778,12.08608016,1.212936997,0,0
"15",15.16256905,-2.232158184,15.92186925,1.834327579,0,0
"16",16.97215652,-2.11959219,17.65993808,2.484496355,0,0
"17",15.87838078,-1.302142143,15.99729134,2.551644325,0,0
"18",15.02545452,-2.180365801,15.27694223,2.415215731,0,0
"19",12.05697727,-0.060025178,12.059129,2.220165253,0,0
"20",10.66517162,-3.454366684,12.01867621,1.697898626,0,0
"21",10.53883457,-3.742816687,12.38739564,1.34723413,0,0
"22",10.30202675,-2.20745945,11.44576978,1.282217264,0,0
"23",9.172475815,-0.834065557,9.70427998,1.113812804,0,0
"24",8.342002869,-1.054108024,8.576756992,0.724777699,0,0
"25",6.844367027,-1.397194505,7.081096371,0.40608865,0,1
"26",5.733976364,-2.616259575,6.311957308,0.160943076,0,0
"27",5.394332409,-3.445684671,6.413331523,-0.120441459,0,0
"28",5.403762817,-2.662662983,6.029002349,-0.352796674,0,0
"29",5.928870678,-2.595901728,6.571615228,-0.483896375,0,0
"30",6.061046124,-2.985990524,6.904250188,-0.66509068,0,0
"31",6.914122105,-2.815944195,7.618955624,-0.902775407,0,0
"32",8.02885437,-2.524350643,8.492422429,-1.080772042,0,0
"33",8.586295128,-2.613864422,9.17554802,-1.135130644,0,0
"34",7.789501667,-3.314407587,8.864417846,-0.983779967,0,0
"35",7.270380974,-3.743714809,8.878176269,-0.767412245,0,0
"36",7.364685059,-4.187691689,9.158845189,-0.704527021,0,0
"37",9.157357216,-4.524790764,10.79489626,-0.719448984,0,0
"38",12.41009331,-4.121678829,13.28930879,-0.965660632,0,0
"39",11.42229748,-4.426594734,12.34108951,-0.972055376,0,0
"40",10.88476467,-4.625531197,11.95635998,-0.840956211,0,0
"41",10.00893593,-5.559588909,12.00397362,-0.243014246,0,0
"42",10.46743298,-4.857848167,12.05015699,-0.108717158,0,0
"43",10.2563715,-3.765868902,11.19259715,-0.18652381,0,0
"44",10.34932804,-3.180286646,11.14187816,-0.278187424,0,0
"45",12.7444973,1.720222831,13.06905044,-0.441262364,0,0
"46",11.28024292,3.56738162,11.97538267,-0.269660503,0,0
"47",10.04605865,3.73114109,10.8634491,-0.430603862,0,0
"48",10.60439777,-0.042062532,11.24371637,-0.189721733,0,0
"49",10.46653461,-1.970651984,11.76178621,0.547846615,0,0
"50",10.42342472,-2.465373278,11.72762294,0.688538969,0,0
"51",10.48240185,-0.728235602,10.69883653,0.35705933,0,0
"52",10.42477131,1.281036019,10.6481509,0.063950755,0,0
"53",9.910141945,1.907333732,10.64474125,-0.164141268,0,0
"54",10.96230412,0.302221537,12.3433674,-0.34000659,0,0
"55",9.347910881,-0.825832665,11.60708912,-0.410352379,0,0
"56",9.013057709,-0.673000515,10.58437056,-0.434867054,0,0
"57",8.224197388,-0.439785451,8.818818986,-0.588349283,0,0
"58",7.954907894,0.069455564,8.206096467,-0.669353843,0,0
"59",6.968159676,-0.693807244,7.121207315,-0.642707586,0,0
"60",7.495512962,-2.47360611,8.234835936,-0.558505654,0,1
"61",10.6740036,-2.468067646,11.80347821,-0.395430684,0,0
"62",9.528884888,-0.962648153,10.534549,-0.120441459,0,0
"63",7.211104393,-0.878223717,8.269839851,0.089531213,0,0
"64",5.711672306,-1.9823277,6.913727592,0.380508184,0,0
"65",5.81855011,-1.542691946,6.567797167,0.634180129,0,0
"66",7.078779697,-1.872306466,7.666762503,0.619258702,0,0
"67",8.592132568,-1.423240304,9.224243596,0.492422491,0,0
"68",9.45613575,-0.13516891,9.980008551,0.370915502,0,0
"69",8.657247543,0.050445098,9.040704867,0.16200915,0,0
"70",7.921377182,-0.598754883,8.649328887,-0.118309863,0,0
"71",8.469388008,-1.075363755,9.552788484,-0.188655928,0,0
"72",8.468789101,-1.280287623,9.348655204,-0.028778385,0,0
"73",9.586215019,-0.996926904,10.50993604,-0.027712587,0,0
"74",10.08931923,-1.715582371,10.80461124,-0.052226719,0,0
"75",9.677375794,-2.321372747,10.6379427,-0.057556238,0,0
"76",9.615405083,-1.710043907,10.77332348,-0.108717158,0,0
"77",8.300688744,-0.775387585,9.831578071,-0.156680152,0,0
"78",9.012458801,-1.438358903,10.766452,0.16307494,0,0
"79",12.51861763,-3.335364103,14.48856455,0.93475008,0,0
"80",16.11803246,-4.599185944,17.79122393,2.014456034,0,0
"81",18.40332985,-2.326911211,19.33078214,2.522866488,0,0
"82",15.43111038,-0.62539947,15.92253194,2.631583214,0,0
"83",11.6459322,-2.669997692,12.1154521,2.500483751,0,0
"84",9.328900337,-3.381168842,10.62986841,1.906805277,0,0
"85",10.44198608,-3.689976692,12.85553581,0.93475008,0,0
"86",13.60625553,-1.800605655,15.44360083,0.490290612,0,0
"87",13.4685421,-0.274080038,15.1543768,0.173733175,0,0
"88",10.97397995,-0.727636874,12.10303135,-0.241948456,0,0
"89",8.453371048,-1.927541614,8.956211377,-0.797256172,0,0
"90",7.48054409,-2.233804703,7.896741857,-1.23212266,0,4
"91",5.957760811,-2.810106278,6.655563964,-1.274756908,0,0
"92",5.149741173,-3.175795794,6.053063668,-1.439963698,0,0
"93",3.977379084,-1.055604816,4.132383039,-1.831130385,0,0
"94",4.07168293,0.889600039,4.17530299,-1.919596076,0,0
"95",5.114713669,0.981658638,5.234351133,-1.807682157,0,0
"96",4.575535297,-0.939296722,4.671759869,-1.81620872,0,0
"97",4.908592701,-1.902393937,5.270218563,-1.93984735,0,0
"98",6.407724857,-1.987417102,6.719503955,-1.836459994,0,0
"99",8.69511795,-1.640887737,8.902384458,-1.336576104,0,0
"100",12.11056614,-2.532583475,12.52866343,-0.829231381,0,0
"101",15.29998398,-6.007158279,16.6957256,-0.429538071,0,0
"102",12.15158081,-7.237000465,14.73611676,0.124703847,0,0
"103",6.985373974,-6.569987774,10.94605622,0.219564855,0,0
"104",6.627617836,-6.69243288,10.82770189,-0.01279063,0,0
"105",12.65797806,-3.255879402,13.76761622,-0.269660503,0,0
"106",14.27207088,3.650309086,15.06881493,-0.271792114,0,0
"107",16.44031143,5.069657803,17.20422482,-0.092729405,0,1
"108",14.99851036,1.044078827,15.09262378,0.301635206,0,0
"109",11.97854042,-1.143621802,12.92982971,0.833494604,0,0
"110",3.055895329,-2.510429621,9.06354764,0.832428515,0,0
"111",7.921078205,-1.811083794,9.700899959,-0.033041574,0,0
"112",12.57849312,0.322579205,13.43751874,-1.676582456,0,0
"113",14.6449461,2.719245195,15.43312808,-2.046432018,0,0
"114",8.451873779,0.153281257,8.761077408,-1.238518,0,0
"115",9.984686852,-0.583636344,10.47318805,-1.130867124,0,0
"116",11.22695351,-1.880988479,11.99253104,-1.086101532,0,0
"117",9.311387062,-0.692160666,10.00872346,-1.308863998,0,0
"118",7.848628521,-0.716260552,8.180607115,-1.095693946,0,0
"119",7.524851799,-1.061442733,7.766021166,-0.965660632,0,0
"120",8.690777779,-2.574645996,9.150022713,-0.565966725,0,0
"121",9.501192093,-1.85179913,10.00427422,-0.305899471,0,0
"122",9.303902626,-1.980381727,9.934434334,-0.261133611,0,0
"123",6.764283657,-1.792821765,7.576746109,0.3240183,0,0
"124",6.83014679,-0.251027972,7.801114018,0.682143688,0,0
"125",6.710246086,0.740360439,7.701581758,0.633114338,0,0
"126",8.967252731,0.022752686,9.758821458,0.383705586,0,0
"127",8.693022728,0.143102422,9.271103987,0.208906353,0,0
"128",7.26693821,0.227526858,7.745620967,0.07993824,0,0
"129",7.238497257,0.446820825,8.12040745,0.067148142,0,0
"130",9.796078682,0.756975889,10.89256604,0.028777853,0,0
"131",9.934690476,0.969533861,11.40741379,0.168403924,0,0
"132",9.322463989,-3.153492212,11.04965827,0.390100628,0,0
"133",12.74659348,-4.159101009,13.69135666,1.175632238,0,0
"134",16.0933342,-3.084485769,16.58271632,1.367485285,0,0
"135",17.83062172,-3.103047133,18.62284521,1.596642852,0,0
"136",15.52122307,-4.913981438,16.38530099,2.549512863,0,0
"137",11.1089983,-4.227359295,11.96479656,2.641175985,0,0
"138",7.220385075,-4.116589546,9.108504344,1.702162027,0,0
"139",7.394473076,-4.174069881,9.899582024,0.992306054,0,0
"140",9.46975708,-3.376528502,11.35424991,0.681077898,0,0
"141",11.64563274,-2.406695366,12.9923666,0.411417902,0,0
"142",10.89165115,-2.583028555,11.94385044,-0.009593239,0,0
"143",8.017776489,-3.426075459,8.815246587,-0.492423266,0,1
"144",5.702691078,-3.133434057,6.529274674,-0.886787653,0,0
"145",4.048331261,-3.200943708,5.391592453,-1.147920728,0,0
"146",3.163222075,-2.973416805,4.470850738,-1.309929848,0,0
"147",2.772833824,-3.125500441,4.273923522,-1.423975945,0,0
"148",3.211122513,-2.021546125,3.795216893,-1.469807386,0,0
"149",4.445455551,-1.730401635,4.783063358,-1.392000198,0,0
"150",5.686824322,-1.423390031,5.879438955,-1.229991078,0,0
"151",6.291267395,-2.231709242,6.697643538,-1.093562365,0,0
"152",7.865543366,-2.646496534,8.332640606,-1.146854878,0,0
"153",9.906549454,-3.050356865,10.59296029,-1.161776543,0,0
"154",11.00810814,-4.046684742,12.31898103,-1.101023555,0,0
"155",10.90347576,-6.471043587,13.45303256,-0.856943429,0,0
"156",10.96859074,-6.33527565,14.37178441,-0.293108851,0,0
"157",10.29633904,-5.360053539,13.80370206,0.235552609,0,0
"158",9.726324081,-5.676944733,11.99655865,-0.004263721,0,0
"159",12.70408154,-3.718866587,13.47115154,-0.37837714,0,4
"160",14.70766544,-1.460213423,14.91723893,0.199313641,0,0
"161",17.32826614,1.541344762,17.40474126,0.385837436,0,0
"162",19.53333092,3.391347647,20.29391728,0.214235336,0,0
"163",13.53889561,2.473156929,14.34151214,1.467675209,0,0
"164",8.607400894,-2.287393332,9.197437543,1.413316965,0,0
"165",14.18989182,-2.345622301,16.13139087,-0.091663607,0,0
"166",13.72480869,2.209555149,16.18986488,-0.757819533,0,0
"167",12.20367241,1.933229804,13.97757887,-0.461513311,0,0
"168",8.358617783,1.011296988,8.491327686,-0.588349283,0,0
"169",7.491770744,3.213068485,8.493445618,-0.926223993,0,0
"170",7.374864101,2.09564209,8.004213177,-1.072245121,0,0
"171",9.74368763,-1.765428782,10.43315902,-1.357893109,0,0
"172",10.70618629,-1.94849813,11.47047149,-1.063718796,0,0
"173",9.642198563,-0.744851053,10.22958761,-0.839889884,0,0
"174",6.149960995,1.485061765,6.45040282,-0.559571445,0,0
"175",7.768545151,2.095192909,8.384287225,-0.684276044,0,0
"176",8.385412216,0.07679031,8.944177227,-0.682144463,0,0
"177",7.2356534,-1.59553206,7.718951883,-0.062885754,0,0
"178",8.543783188,-0.819246352,8.907573829,0.177996367,0,0
"179",9.79712677,-0.76056838,10.44905994,0.32508409,0,0
"180",8.930579186,-0.704584837,9.791717096,0.322952479,0,0
"181",4.04249382,0.288749546,6.026429459,-0.0831367,0,0
"182",3.955524445,-1.043629766,6.418367268,-0.052226719,0,0
"183",10.03677845,-2.301613808,11.99501188,0.186523274,0,0
"184",10.44647598,-1.067729592,11.75972005,0.371981293,0,0
"185",7.513026714,1.102307797,8.008317438,0.3240183,0,0
"186",7.507188797,1.077908516,8.11744315,0.344269216,0,0
"187",8.473279953,-3.013084173,10.3874158,0.529727221,0,0
"188",14.50483704,-3.782184839,15.73415874,1.014688849,0,0
"189",15.57361412,1.219214678,15.90727449,1.107417703,0,0
"190",17.65443802,0.036673736,18.1072507,1.337641358,0,0
"191",19.53692245,-1.057850242,20.51913378,2.227626085,0,0
"192",14.90944576,-2.373913527,15.32519005,3.082437754,0,0
"193",13.37468719,-3.182981014,13.74822487,3.290278912,0,0
"194",12.31084919,-0.348924398,12.37391858,2.839423895,0,0
"195",10.71801186,-0.485889584,11.26577365,2.157279968,0,0
"196",13.23727322,-2.807262182,13.9847067,1.986744046,0,0
"197",13.72555733,-1.391356707,14.39514341,2.254272461,0,0
"198",12.08960915,-1.827699304,12.51892366,2.074143887,0,0
"199",8.305778503,-1.398691416,8.571513757,1.370682716,0,0
"200",5.639372826,-0.686023414,5.68532311,0.670419395,0,1
"201",3.60540247,-1.030756474,3.812168795,0.310161859,0,0
"202",2.845133543,-2.357297897,4.031569831,0.049028795,0,0
"203",2.525697708,-3.156486034,4.172709292,-0.431669653,0,0
"204",2.543660402,-2.475102902,3.552744844,-0.912368119,0,0
"205",2.595003605,-2.099683762,3.342026596,-1.179896474,0,0
"206",2.947071552,-2.060914278,3.599164781,-1.381341934,0,0
"207",3.113675118,-1.852697253,3.630023764,-1.540153742,0,0
"208",4.143084526,-1.344803453,4.367517449,-1.720282197,0,0
"209",7.52006197,-0.325722665,7.608464557,-1.988876343,0,0
"210",16.73205566,-2.317031622,17.68825311,-2.260668039,0,0
"211",18.60256577,-5.324577332,21.59183707,-1.367486119,0,0
"212",13.78663063,-7.131320477,17.18327008,0.171601579,0,0
"213",11.10196304,-8.815767288,15.4036816,1.173500657,0,0
"214",7.247927666,-9.136550903,12.38933681,0.792991877,0,0
"215",7.435787201,-5.10782814,9.64885342,-0.203577623,0,0
"216",15.24280262,1.917961597,15.71755886,-0.525464296,0,0
"217",19.53392982,6.502328396,20.65089594,-0.227026492,0,0
"218",15.66402626,1.16397953,16.35231182,0.353861928,0,0
"219",2.877166987,0.73512131,4.364868859,0.845218599,0,0
"220",1.951042771,-4.240531921,4.77714472,1.22146368,0,0
"221",3.908522129,-2.66131568,4.916223582,0.201445237,0,0
"222",13.83782387,2.784210205,14.15078947,-1.027479529,0,0
"223",18.24525833,6.165528774,19.31334697,-1.053059936,0,0
"224",12.47550678,0.508492589,13.08888143,-1.07011354,0,0
"225",11.06499004,0.33066237,12.57175268,-0.860141397,0,0
"226",8.900042534,-0.453706503,10.40222017,-0.639510214,0,0
"227",7.663313866,-0.914298713,8.809177503,-0.698132217,0,0
"228",5.807323456,-0.517324209,6.261440944,-0.823902428,0,0
"229",5.520220757,-0.419876874,5.536168557,-0.902775407,0,0
"230",8.716524124,-0.562230825,8.787934824,-0.756753743,0,0
"231",11.88977528,-0.238304436,12.24031338,-0.623522461,0,0
"232",7.497159481,-0.064515837,8.19706668,-0.413550288,0,0
"233",5.891598225,-0.973276079,6.858861674,-0.308031052,0,0
"234",3.428769827,-2.93629384,5.447788021,0.193984389,0,1
"235",11.32963943,-0.856518865,12.00124925,0.403957069,0,0
"236",12.26205063,1.0309062,13.43251009,0.219564855,0,0
"237",8.996891022,1.485361219,10.53078272,-0.024514664,0,0
"238",3.3470397,-1.499731302,4.619631564,0.322952479,0,0
"239",5.126988411,-0.169148251,6.35712875,0.395430148,0,0
"240",12.02703953,0.714613974,13.2363787,0.073543459,0,0
"241",13.99409866,1.981878638,15.97025729,-0.074609786,0,0
"242",15.13248158,1.495989084,16.49003994,0.105518706,0,0
"243",18.6769619,-2.511327744,20.04726851,0.923025787,0,0
"244",16.85674667,-3.459156752,17.46247896,1.913200498,0,0
"245",15.08787441,-3.748804331,15.57164523,2.315026045,0,0
"246",13.3752861,-0.914149046,13.6300174,2.328881979,0,0
"247",11.31152725,0.908011794,11.55429528,2.380042791,0,0
"248",10.0959053,-1.463806033,10.34065389,2.727509975,0,0
"249",11.30583954,-2.70023489,12.30199437,2.672085285,0,0
"250",12.73042679,-2.191592455,14.39041929,2.022983074,0,0
"251",11.31227589,-2.446362734,12.8422322,1.482596993,0,0
"252",9.486073494,-1.799258471,10.49122798,0.981647313,0,0
"253",6.727011204,-1.427132249,7.294504569,0.56170249,0,0
"254",4.88898325,-1.369801521,5.234288821,0.191852793,0,4
"255",3.991150379,-1.343605995,4.282982246,-0.105519235,0,0
"256",3.946243763,-1.705553293,4.306381086,-0.268594712,0,0
"257",4.885390759,-1.597627759,5.182584893,-0.440196574,0,0
"258",5.120551586,-1.86841464,5.459581635,-0.716251612,0,0
"259",5.029241562,-2.124083042,5.459517528,-1.043467283,0,0
"260",5.559289455,-1.938019872,5.894335481,-1.340839863,0,0
"261",5.976621628,-2.278861046,6.547932178,-1.543351173,0,0
"262",6.898853779,-2.62539053,7.617560588,-1.623289943,0,0
"263",8.913813591,-2.699486494,9.900517198,-1.549746156,0,0
"264",11.7375412,-3.423979759,13.05086368,-1.28754735,0,0
"265",12.78611088,-5.101391792,14.60114397,-0.83349514,0,0
"266",12.56532002,-6.573280811,14.72952556,-0.362389386,0,0
"267",12.24947739,-7.852969647,15.05789456,0.207840547,0,0
"268",9.64234829,-7.607330322,12.73600809,0.281384021,0,0
"269",12.54586029,-5.606740952,14.07939848,-0.29097724,0,0
"270",18.97828484,1.204096079,19.26196314,-0.363455176,0,0
"271",19.54261017,3.86945343,19.98003841,0.118309066,0,0
"272",9.037606239,0.809067547,9.317038435,0.93368429,0,0
"273",3.837719441,-1.454375625,6.312757732,0.788728714,0,0
"274",2.808908939,1.103954315,5.300931115,-0.036239497,0,0
"275",7.539820671,2.484832764,9.173161743,-0.076741383,0,0
"276",13.76552486,2.592907906,14.55155986,-0.221696973,0,0
"277",13.24251175,1.282682657,13.78733058,-0.587283492,0,0
"278",10.44812298,0.190404058,10.50043886,-0.969923794,0,0
"279",9.502689362,0.970881045,10.23068949,-0.944343329,0,0
"280",8.168663025,0.328267366,9.142858718,-0.896380365,0,0
"281",7.753576279,0.46164,8.314954811,-0.897446156,0,0
"282",8.169561386,0.008532257,8.518722111,-0.984845758,0,0
"283",9.577234268,-0.240549773,9.78868995,-0.911301792,0,0
"284",10.05459118,-1.053209782,10.33215272,-0.775938869,0,0
"285",8.837921143,-0.790955186,9.196585594,-0.612863958,0,0
"286",7.554639816,0.182620242,7.958454258,-0.446591348,0,0
"287",7.020850182,0.343236238,7.589337107,-0.335743129,0,0
"288",8.692423821,-0.064815216,9.567005168,-0.295240969,0,1
"289",10.15114021,-0.299377441,11.16206922,-0.271792114,0,0
"290",8.527616501,-0.502505064,9.292117759,-0.317623496,0,0
"291",7.212152481,-0.755329311,7.805614642,-0.067148946,0,0
"292",5.372926712,-0.346529394,5.612601455,0.253671944,0,0
"293",8.304730415,1.023721218,8.876836023,0.364520162,0,0
"294",10.0496521,0.96025312,11.21368039,0.220630646,0,0
"295",9.584119797,-0.31195128,10.29702171,0.320820361,0,0
"296",9.568851471,-0.151335299,10.0796045,0.614995003,0,0
"297",9.09688282,-1.385369062,9.905940006,0.826033473,0,0
"298",9.82901001,-3.870201826,11.42946255,1.309929371,0,0
"299",15.54936504,-0.281564474,16.76922779,2.012324572,0,0
"300",18.68160057,4.385879517,20.35850559,1.560404182,0,0
"301",16.06773758,1.137334943,16.21059017,1.410119057,0,0
"302",13.94589901,-0.396375746,14.07394879,1.76184988,0,0
"303",13.88976574,-2.427651644,14.24437134,1.803417802,0,0
"304",13.34729385,-2.877915382,13.65610027,1.59024775,0,0
"305",11.60282135,-2.111359358,12.25442923,1.277953506,0,0
"306",10.79674816,-1.660796404,12.05450079,1.196949005,0,0
"307",10.86066532,-1.660646677,11.79716603,1.300336599,0,0
"308",9.59444809,-0.86041075,9.900941792,1.368551135,0,0
"309",8.195158005,-0.894390106,8.277927639,1.502848148,0,0
"310",7.503147125,-1.85958302,7.730963924,1.374946117,0,0
"311",6.518195152,-1.849104762,6.786898322,1.10315454,0,0
"312",6.691534996,-1.65480876,6.930289981,0.795123518,0,1
"313",6.465205669,-1.019080758,6.679897658,0.509476006,0,0
"314",6.440057755,-1.679956555,6.788182244,0.250474572,0,0
"315",5.759572983,-1.761985898,6.063994548,-0.112980351,0,0
"316",4.427792549,-2.733016729,5.20793191,-0.650168717,0,0
"317",4.629872322,-2.958896875,5.502425959,-1.216135144,0,0
"318",5.581143856,-3.373684406,6.559797621,-1.56253624,0,0
"319",6.816075802,-3.851939917,7.892735446,-1.728809118,0,0
"320",8.503966332,-3.860322475,9.570721452,-1.707492113,0,0
"321",11.13654137,-4.197421551,12.62388379,-1.647804618,0,0
"322",13.86252308,-5.329966068,15.80997589,-1.284349442,0,0
"323",13.82644749,-6.193370819,15.65563696,-0.324018806,0,0
"324",11.76283932,-6.883435726,13.76688029,0.466842026,0,0
"325",8.306077004,-6.544390678,10.62238809,0.375178665,0,0
"326",7.217241764,-4.61490345,8.658954074,-0.37304762,0,0
"327",15.40521431,0.05643265,15.5280729,-0.287779868,0,0
"328",19.51416969,-2.704725504,20.04364135,0.998701096,0,0
"329",19.5424614,-5.201982498,21.07415322,1.518835664,0,0
"330",6.419101238,0.923729122,8.911245344,0.419944286,0,0
"331",3.735631704,2.900668144,6.427625768,-0.289911449,0,0
"332",5.911656857,3.025059462,7.79849526,-0.367718637,0,0
"333",11.54549122,4.06120491,12.87856917,-1.202278972,0,0
"334",11.40433502,1.860630751,11.90663319,-1.539087892,0,0
"335",9.838890076,0.295784921,9.979412248,-1.539087892,0,0
"336",10.5457201,-1.505718827,10.7319422,-0.822836638,0,0
"337",10.55260563,-1.633403301,11.09763322,-0.606468916,0,0
"338",10.16940308,-1.875599623,10.70929303,-0.640576005,0,0
"339",7.920179844,-0.214953005,8.015287098,-0.593678772,0,0
"340",8.294700623,1.416803718,8.767497415,-0.571295738,0,0
"341",8.555758476,1.427880764,9.302413496,-0.62245667,0,0
"342",9.795181274,-1.185983777,10.92307573,-0.90703857,0,0
"343",9.327552795,-0.959354997,9.906126774,-1.027479529,0,0
"344",9.22696209,-0.788859546,9.61322887,-1.006162763,0,0
"345",9.914632797,-1.485361219,10.28092423,-0.798321962,0,0
"346",10.25756931,-2.517464876,10.88251735,-0.606468916,0,4
"347",9.869875908,-2.378703356,10.48240131,-0.490291148,0,0
"348",8.79570961,0.451910257,9.37947037,-0.263265193,0,0
"349",8.704548836,0.120499417,9.351579633,-0.317623496,0,0
"350",8.710236549,-0.941092968,9.421255923,-0.29737255,0,0
"351",8.289611816,-0.464933157,8.72732527,0.305898666,0,0
"352",8.292455673,0.675395489,9.318560171,0.529727221,0,0
"353",7.841892719,1.20454514,9.361825867,0.628851175,0,0
"354",8.208331108,0.122744754,9.798373605,0.957133174,0,0
"355",12.62474632,-2.033521175,13.94065869,1.303534031,0,0
"356",18.85029984,-1.842219114,19.6665571,1.561469913,0,0
"357",14.6777277,-0.703536987,14.71521965,2.059221983,0,0
"358",11.16812611,-0.87029022,11.20647845,2.386437893,0,0
"359",10.41279602,-0.576451242,10.42997461,2.542052031,0,0
"360",9.956395149,-3.19720149,10.46953814,1.820471406,0,0
"361",10.78162956,-3.039579153,11.37423066,1.296073437,0,0
"362",12.02135181,-2.93210268,13.31302896,1.22572732,0,0
"363",10.16386414,-2.181263924,11.928228,0.801518798,0,0
"364",7.401508331,-1.892065406,9.107680096,0.045831405,0,0
"365",6.418353081,-1.306632876,7.220283379,-0.493489087,0,1
"366",5.27263546,-1.114582181,5.666820449,-0.747161031,0,0
"367",4.420158386,-1.530417442,4.757029301,-0.939014375,0,0
"368",4.673131943,-2.170935631,5.191371714,-1.061586857,0,0
"369",5.450465679,-2.575544119,6.069420709,-1.193752408,0,0
"370",6.826254845,-2.750380516,7.359623283,-1.317390919,0,0
"371",7.940387726,-2.942880154,8.56975788,-1.321654201,0,0
"372",8.955726624,-2.747386694,9.712860187,-1.195883989,0,0
"373",9.940079689,-3.138373613,10.96782939,-1.040269852,0,0
"374",11.28158951,-3.75763607,12.61435424,-0.900643528,0,0
"375",12.26923561,-3.856729984,13.45697682,-0.659761429,0,0
"376",11.73020649,-4.792284489,13.03831353,-0.206775278,0,0
"377",10.90706825,-5.161566258,12.34547802,0.250474572,0,0
"378",9.470655441,-5.933062077,11.65407282,0.496685654,0,0
"379",8.216712952,-4.260590076,9.540351699,0.217433259,0,0
"380",10.16685772,-0.879421234,10.3064439,-0.383706123,0,0
"381",14.11654472,3.287763119,14.49447421,-0.869734108,0,0
"382",16.87306213,4.859644413,17.56651961,-0.62885195,0,0
"383",9.932146072,0.790805519,10.01240952,-0.23448734,0,0
"384",10.30921173,-2.607128382,12.04080003,0.326149881,0,0
"385",7.98110342,-1.110540628,11.23112498,0.007460579,0,0
"386",8.580606461,-0.110021211,9.784871269,-0.568098307,0,0
"387",8.699309349,1.362317085,9.307169163,-0.932619035,0,0
"388",8.995842934,1.448687434,9.571295788,-1.124471784,0,0
"389",9.179810524,0.671054542,9.714540999,-1.242781401,0,0
"390",9.879605293,-1.392853499,10.59412557,-1.062652707,0,0
"391",9.555679321,-1.477577329,10.39412975,-0.86547035,0,0
"392",9.712253571,-0.169148251,10.04589118,-0.490291148,0,0
"393",9.395661354,0.118703157,9.705398269,-0.433801234,0,1
"394",9.462422371,-0.061821442,9.71117987,-0.4593817,0,0
"395",9.698032379,-1.777403832,10.25179443,-0.568098307,0,0
"396",9.463470459,-1.67920804,10.24756612,-0.515871584,0,0
"397",9.557774544,-0.987346828,10.45427849,-0.350665093,0,0
"398",9.760602951,-0.265098721,10.60519142,-0.086334087,0,0
"399",9.719887734,-0.192499697,10.45692363,0.16307494,0,0
"400",9.443412781,-0.525257707,10.04119475,0.261133075,0,0
"401",8.579857826,-0.398621053,8.85200595,0.450854272,0,0
"402",8.199648857,-0.572259963,8.442886555,0.718382657,0,0
"403",7.650141239,-0.89109695,7.951094393,0.897445321,0,0
"404",8.708440781,-1.056502938,9.029288214,1.032808185,0,0
"405",9.127569199,-0.279319167,9.450601742,1.10422039,0,0
"406",8.923244476,1.07356751,9.323528953,1.187356472,0,0
"407",8.879534721,-0.378413081,9.542859221,1.497518897,0,0
"408",11.12306976,-2.873424768,12.14666449,2.29690671,0,0
"409",14.64838886,-2.951412439,15.27309732,3.250841856,0,0
"410",19.21943283,-6.125561714,20.48709072,3.149586439,0,0
"411",17.64276123,-3.604504347,18.01223085,3.629219055,0,0
"412",10.29364395,-4.301155567,11.27593209,3.308398247,0,0
"413",4.066743374,-5.412744045,6.893736122,2.260667324,0,0
"414",1.804796934,-4.143832684,4.618518515,1.196949005,0,4
"415",3.957919359,-4.001478672,6.043189688,0.40608865,0,0
"416",8.994047165,-3.960015059,9.96301717,0.164140731,0,0
"417",8.926387787,-5.005740643,10.24510374,0.105518706,0,0
"418",7.081473827,-5.834417343,9.202950908,-0.488159567,0,0
"419",6.146817684,-4.803810597,7.941819105,-1.434634447,0,0
"420",6.023623943,-3.431613922,7.17578949,-1.997403264,0,0
"421",6.335575104,-1.97035265,6.751956797,-1.977152109,0,0
"422",6.468199253,-1.662293196,6.682683048,-1.756521225,0,0
"423",6.726562023,-2.076781273,7.143511633,-1.555075645,0,0
"424",7.098987579,-3.527863741,8.101395343,-1.53056097,0,0
"425",8.131690025,-4.522844791,9.434218487,-1.698965192,0,0
"426",9.396260262,-4.673880577,10.50654689,-1.719216466,0,0
"427",10.37193108,-3.639531612,10.99323446,-1.547614574,0,0
"428",8.805738449,-2.601440191,9.187260008,-0.984845758,0,0
"429",8.97413826,-3.318149805,9.571093718,-0.66082722,0,0
"430",9.735305786,-4.064797401,10.55458955,-0.594744563,0,0
"431",10.99029541,-5.079836369,12.13240879,-0.641641796,0,0
"432",10.5482645,-5.163961411,11.7685433,-0.619259238,0,0
"433",10.13123226,-4.437222958,11.10109517,-0.270726293,0,0
"434",9.004674912,-4.3300457,10.1124959,-0.045831937,0,0
"435",8.732689858,-4.403991699,9.885626761,0.027712055,0,0
"436",8.216862679,-4.025578976,9.18209493,-0.070346333,0,0
"437",11.58201504,-1.869911552,11.7824933,-0.888919234,0,0
"438",18.96975136,2.148332596,19.19947108,-1.11914289,0,0
"439",19.51746368,1.448837161,19.6430713,-0.303767353,0,0
"440",15.3869524,-4.887486458,17.54748545,1.711754799,0,0
"441",5.509443283,-1.78683424,12.43779934,1.291809917,0,0
"442",4.868775368,-1.35588038,10.35518362,0.787662923,0,0
"443",8.502169609,-0.633482695,9.955990653,0.36665231,0,0
"444",12.47206402,1.897603869,12.64033951,-0.189721733,0,0
"445",9.249265671,3.97034359,10.13666381,-0.249409035,0,0
"446",7.425757885,3.586242437,8.276771803,-0.353862464,0,0
"447",9.694141388,-1.861229539,10.18508939,-0.630983532,0,0
"448",9.633068085,-5.406008244,11.989001,-0.693868518,0,0
"449",8.680298805,-3.840563536,10.75634117,-0.702395439,0,0
"450",8.092022896,-2.345322847,9.563641249,-0.568098307,0,0
"451",6.838379383,-0.231568456,7.290209321,0.052226186,0,0
"452",6.488107681,-0.568368077,6.560106404,0.253671944,0,0
"453",7.774682522,-2.04519701,8.09706313,0.322952479,0,0
"454",9.785750389,-5.1238451,11.31983263,0.400759131,0,0
"455",7.040908337,-1.137334943,7.889589873,0.331479132,0,0
"456",4.601281643,2.478545904,6.700046642,0.135362878,0,0
"457",6.666836262,-0.172291711,8.283314804,-0.222762778,0,1
"458",11.48426819,-1.764530659,12.63140888,-0.327216208,0,0
"459",10.75303936,-2.500999212,11.68277029,-0.338940501,0,0
"460",6.669530869,-2.689157963,7.372017468,-0.208906874,0,0
"461",5.979315758,-1.395847321,6.295684778,0.240881592,0,0
"462",7.773634434,0.953666866,8.138157447,0.466842026,0,0
"463",14.10082722,-2.138153791,14.83131109,0.731172741,0,0
"464",19.11959076,-3.320694685,20.29748694,1.280085683,0,0
"465",15.46643734,-1.473086715,16.01060421,2.107184887,0,0
"466",15.90128326,-1.911674619,16.41366369,2.543117762,0,0
"467",18.57367516,0.01871109,19.3412043,2.624122381,0,0
"468",16.48087692,-0.010328522,17.47425562,2.418413162,0,0
"469",12.1831646,-1.857487321,12.67891248,2.241482019,0,0
"470",10.41384411,-3.383563757,11.13849293,1.68084538,0,0
"471",10.83985806,-3.812422037,11.72522477,0.877194405,0,0
"472",10.00309849,-2.515518904,10.67359457,0.383705586,0,0
"473",8.67326355,-2.125130653,9.18097855,0.235552609,0,0
"474",6.769073486,-1.538051605,7.231026915,0.166272327,0,0
"475",6.014492989,-2.784210205,6.874661247,-0.073543996,0,1
"476",5.872737408,-3.620820522,7.019763024,-0.823902428,0,0
"477",4.649930477,-3.953428745,6.189997622,-1.092496634,0,0
"478",4.287085056,-2.234852552,5.002585315,-1.417580724,0,0
"479",4.701722622,-1.637295246,5.281292797,-1.572129011,0,0
"480",6.068380833,-1.866318941,6.947175299,-2.017654181,0,0
"481",7.554490566,-2.420466662,8.236802614,-2.339540958,0,0
"482",10.19155693,-1.909728646,10.53402646,-2.507945299,0,0
"483",10.33361149,-2.061213732,11.11782674,-2.229758501,0,0
"484",10.9218874,-3.033142567,12.25094975,-1.721348047,0,0
"485",10.99852848,-2.093845844,11.80686146,-1.44849062,0,0
"486",12.01057434,-1.174308062,12.30024846,-0.921960831,0,0
"487",11.66404438,-1.20454514,11.78620042,-0.681078672,0,0
"488",12.27896595,-0.886157215,12.3123296,-0.632049382,0,0
"489",10.01387596,-0.232915655,10.16196016,0.140691876,0,0
"490",9.721833229,-2.815345526,10.1879175,0.60966599,0,0
"491",11.41032219,-4.997657299,13.19057975,0.10338711,0,0
"492",9.828412056,0.947829008,13.48712166,-0.236618936,0,0
"493",9.116192818,1.6022681,12.33273651,-0.197182849,0,0
"494",10.11207199,1.128054142,11.08059196,-0.488159567,0,0
"495",9.300459862,1.440753937,9.848302751,-0.671485961,0,0
"496",9.097930908,0.274978191,9.393145282,-0.741832018,0,0
"497",9.886790276,-1.406624913,10.1391228,-0.732239068,0,0
"498",10.22044659,-3.629652023,11.31447588,-0.573427856,0,0
"499",9.530231476,-2.975661993,10.91227071,-0.46044749,0,0
"500",9.433083534,-0.895437956,10.34394435,-0.331479937,0,0
"501",9.686207771,-0.652044058,10.58931277,-0.218499586,0,0
"502",9.242380142,0.956660628,10.207581,-0.050095126,0,0
"503",8.684340477,0.426014096,9.466679413,0.074609257,0,0
"504",8.554111481,-0.640068948,9.491601143,0.191852793,0,0
"505",9.305548668,-2.507286072,10.5817205,0.61073184,0,0
"506",10.64526272,-3.350632429,11.9976461,1.10315454,0,0
"507",12.33390141,-1.506018162,13.14375172,1.447423816,0,0
"508",13.01229095,-0.801583111,13.49485002,1.976085782,0,0
"509",12.28285789,-1.61993134,12.45627729,2.579356432,0,0
"510",8.926537514,-3.326083422,9.529446791,2.629451513,0,0
"511",6.307733059,-4.82506609,7.9871112,1.95903194,0,0
"512",4.033811569,-5.28565836,6.653732755,1.17882967,0,0
"513",5.503904343,-3.661685467,6.740132219,0.444458962,0,0
"514",8.126152039,-3.048111439,9.097094363,-0.017053818,0,0
"515",7.097490788,-3.7384758,8.687418327,-0.273923695,0,0
"516",5.272785187,-3.916156292,7.018985615,-0.706659138,0,0
"517",4.422852516,-3.135529518,5.717947148,-1.3195225,0,0
"518",4.849165916,-2.659369707,5.854780425,-1.875896096,0,0
"519",5.727240086,-3.046165466,6.861656696,-2.297972918,0,0
"520",6.971901894,-4.08261013,8.388675286,-2.521801472,0,0
"521",9.648635864,-4.619843006,10.86509376,-2.46531105,0,0
"522",12.89508438,-3.446732521,13.37357843,-2.139161348,0,0
"523",13.25074482,-2.063159704,13.43205399,-1.6541996,0,0
"524",9.350305557,-2.414479017,9.671788624,-0.977384925,0,0
"525",8.760382652,-3.174299002,9.324970677,-0.757819533,0,0
"526",9.261091232,-3.447480917,9.963352189,-0.70879072,0,0
"527",15.89319992,-4.962929726,16.88418894,-0.273923695,0,0
"528",17.30266953,-6.241420746,18.62035829,0.233421013,0,0
"529",19.53482628,-8.877439499,21.59685895,1.475136161,0,0
"530",7.431745529,-0.073197782,8.281672859,0.867601693,0,0
"531",3.556753635,0.853525102,4.747816487,0.257935137,0,0
"532",5.607039928,0.436043233,6.849106178,0.108716629,0,0
"533",7.748187542,0.0968486,9.547138317,-0.49881807,0,0
"534",12.04410458,-1.584305406,14.55928967,-0.562768817,0,0
"535",11.3263464,-0.938697994,13.33815074,-0.538254678,0,0
"536",8.64961338,-1.447040916,9.204166166,-0.461513311,0,0
"537",8.608898163,-2.660866737,9.136389744,-0.229158089,0,0
"538",10.0280962,-1.701661348,10.40997889,-0.142823994,0,0
"539",9.998607636,-3.193608761,10.60156466,-0.285647988,0,0
"540",8.782985687,-2.862048388,9.287486643,-0.233421549,0,0
"541",7.447762489,-1.173409939,7.608472829,0.026645726,0,0
"542",6.73718977,-2.04938817,7.201017456,0.104452908,0,0
"543",7.204368591,0.465232551,7.510372619,0.147086918,0,0
"544",7.8423419,0.19235,8.317840926,0.131099165,0,0
"545",10.04022121,-1.972597957,11.04351488,0.093794406,0,0
"546",8.517587662,-2.844534874,9.982295194,0.278186619,0,0
"547",6.560856819,-1.666634202,7.409229307,0.511607885,0,0
"548",5.006937981,-0.888701916,5.2184863,0.540385723,0,0
"549",6.006559372,-1.294208646,6.161589655,0.419944286,0,0
"550",10.27598095,-1.620829463,10.64768481,0.271791577,0,0
"551",12.30037117,-1.806293845,12.8745283,0.215301663,0,0
"552",7.273973465,-1.310524702,10.01623629,0.52866143,0,0
"553",5.892496586,-1.500779152,7.675106075,0.493488282,0,0
"554",5.838009834,-0.753682733,7.363600892,0.421010613,0,0
"555",6.306684971,-1.681603074,8.094664769,0.376244754,0,0
"556",11.2456646,-4.963378429,13.26899423,0.956066847,0,0
"557",16.86048889,-5.413642407,19.04698716,1.588116169,0,0
"558",17.20761681,-5.814957619,19.41757702,1.928122282,0,0
"559",19.55503464,-4.683909893,20.51276428,1.864171267,0,0
"560",18.81512451,-4.272714615,19.29421477,1.46341157,0,0
"561",16.39450836,-4.642146587,17.19100994,1.421843648,0,0
"562",14.7976284,-5.600603581,16.06153671,1.089298129,0,0
"563",12.21938992,-5.664221287,13.46927113,1.085034967,0,0
"564",11.99216175,-4.091142654,12.92656094,1.22146368,0,0
"565",10.44887161,-3.814068556,11.58461712,1.232122183,0,0
"566",6.789880276,-1.504072309,7.368041554,0.803650379,0,0
"567",5.927823067,-1.392404437,6.328909517,0.594744086,0,0
"568",5.177882671,-3.08807826,6.086860714,0.456183523,0,0
"569",5.20033598,-3.639232159,6.351920443,0.063950755,0,0
"570",5.377118111,-3.415297747,6.373026524,-0.134297624,0,0
"571",4.344116211,-3.478316784,5.577015828,-0.249409035,0,0
"572",3.710633755,-2.811902523,4.666857625,-0.595810413,0,0
"573",3.408561945,-2.440225601,4.266010197,-1.057323694,0,0
"574",4.474345684,-2.000589848,5.207724798,-1.473004818,0,0
"575",7.569159985,-2.003733158,8.399393568,-1.720282197,0,0
"576",8.472980499,-2.490520954,9.352409305,-1.652067781,0,0
"577",8.368647575,-2.887196064,9.052627974,-1.215069056,0,0
"578",7.982450485,-4.110901356,9.330123713,-0.847351015,0,0
"579",8.218958855,-5.167853355,10.38815283,-0.734371185,0,0
"580",11.41855526,-6.923103333,14.40330518,-0.74502945,0,0
"581",14.15112305,-4.999453545,15.4880783,-0.588349283,0,0
"582",11.03969288,-4.556075573,11.9546874,-0.219565377,0,0
"583",9.15765667,-6.15175724,11.03215944,-0.018119881,0,0
"584",11.94441128,-1.827998638,12.14084494,0.392232239,0,0
"585",18.3341732,1.319955111,18.58918668,0.44126156,0,0
"586",19.54126358,3.237318039,19.9231556,0.391166419,0,0
"587",9.875114441,-1.52951932,10.31444739,0.989108443,0,0
"588",4.426445007,-0.435893565,5.865174539,0.855877101,0,0
"589",5.640570164,0.984802067,6.749590543,0.802584589,0,0
"590",9.569300652,0.361947328,10.3689977,0.68534106,0,0
"591",13.8099823,0.449215859,14.40400278,-0.309096873,0,0
"592",11.16947269,-0.349223793,11.8382894,-0.842022002,0,0
"593",9.347910881,0.458047479,9.83095026,-0.994438469,0,0
"594",9.540560722,1.404978275,10.42379318,-0.781268418,0,0
"595",9.576036453,-0.508043528,10.29780003,-0.527596176,0,0
"596",8.944649696,-1.408720493,9.586002763,-0.401825458,0,0
"597",7.920030117,-1.723366261,8.470833498,-0.361323595,0,0
"598",7.620502949,-2.278412104,8.092646108,-0.245145842,0,0
"599",9.105565071,-2.592009783,9.510833185,-0.176931366,0,0
"600",9.917776108,-2.032323837,10.20686157,-0.288845658,0,0
"601",8.142168045,0.007185059,8.398690494,-0.143890321,0,4
"602",5.354814529,0.233514398,5.962373693,0.228091493,0,0
"603",5.341641903,-0.62959075,6.689919293,0.118309066,0,0
"604",11.06064892,-2.470163345,12.51963972,-0.146021918,0,0
"605",13.49533653,-0.621058524,14.5128338,-0.033041574,0,0
"606",6.058950424,-0.061522063,6.546931228,-0.110848755,0,0
"607",3.476819992,-2.046693802,4.205209889,0.13856028,0,0
"608",7.420818329,-1.14526844,7.844311212,0.378376603,0,0
"609",14.86888027,-1.075064421,15.52138988,0.319754571,0,0
"610",8.63898468,-0.558638334,10.11674144,0.377310813,0,0
"611",7.683372498,-1.178648949,8.364686452,0.504146755,0,0
"612",7.806117058,-0.596359849,8.552140478,0.633114338,0,0
"613",12.3615942,0.735869765,13.61299486,0.44232735,0,0
"614",18.69716835,-2.180665255,19.6879565,0.223828301,0,0
"615",16.16653061,-1.849254489,16.2719597,0.473236799,0,0
"616",13.03489399,-2.986888647,13.61018448,1.05732286,0,0
"617",10.98161316,-3.264411688,11.45900751,1.400526643,0,0
"618",10.71022797,-3.877835989,11.49936177,1.267295241,0,0
"619",10.87653255,-3.238665104,11.65491664,1.224661589,0,0
"620",11.7632885,-1.278940439,12.3286275,1.426107049,0,0
"621",12.08422089,0.136665806,12.57775681,1.363221884,0,0
"622",11.32275391,-1.567390561,11.72660804,0.920894206,0,1
"623",10.05848312,-3.062032461,10.83448699,0.543583155,0,0
"624",8.328082085,-2.862048388,9.396476459,0.306964457,0,0
"625",6.710695267,-2.475102902,7.459575045,0.034106839,0,0
"626",5.995781899,-1.279389501,6.291837206,-0.315491915,0,0
"627",5.791756153,-1.04078567,5.946795766,-0.576625228,0,0
"628",5.359754562,-1.798809409,5.655665078,-0.620325029,0,0
"629",5.635181427,-1.996248722,5.981874745,-0.693868518,0,0
"630",5.461692333,-1.420096874,5.661096678,-0.844153643,0,0
"631",6.149212837,-1.684297442,6.4521661,-0.948607087,0,0
"632",6.782096386,-1.619332552,7.054308977,-1.014689446,0,0
"633",6.642287254,-1.461111546,7.030266044,-1.011492014,0,0
"634",8.498277664,-1.326092362,8.858616711,-0.835626721,0,0
"635",11.56255531,-2.519410849,12.4807096,-0.638444424,0,0
"636",13.70460129,-4.726571083,15.38996122,-0.474303663,0,0
"637",13.45551872,-5.621260643,15.33141619,-0.116177738,0,0
"638",10.4846468,-6.644382954,12.67000844,0.106584497,0,0
"639",9.249565125,-7.680827618,12.58564532,0.147086918,0,0
"640",9.465866089,-3.212170363,10.6158397,0.012789832,0,0
"641",11.31751537,1.704505444,11.65419197,-0.516937435,0,0
"642",19.06151199,4.456532478,19.59730549,-1.123406053,0,1
"643",10.46892929,-1.608105898,10.7238149,-0.467908621,0,0
"644",7.512427807,-1.672921181,8.867080379,0.401824921,0,0
"645",9.710307121,-0.999621272,11.71831119,0.549978197,0,0
"646",12.14469528,1.445993066,13.37571928,0.498817265,0,0
"647",11.43487072,1.282383323,12.01668596,-0.060753629,0,0
"648",8.95542717,0.146395564,9.413693344,-0.956067622,0,0
"649",8.674461365,-0.387394399,9.504252636,-1.065850377,0,0
"650",9.036258698,-0.973425746,10.36917465,-1.083969951,0,0
"651",9.2188797,-1.202150106,10.51857749,-0.960331082,0,0
"652",9.452543259,-0.849184096,10.19130594,-0.840956211,0,0
"653",9.123228073,-0.942889273,9.646433164,-0.803650916,0,0
"654",8.684041023,-2.583328009,9.161967605,-0.570229948,0,0
"655",9.231303215,-2.674039364,9.671591414,-0.311228454,0,0
"656",9.102272034,-2.450404406,9.554534986,-0.121507257,0,0
"657",8.243657112,-0.625100076,8.736492521,0.274988949,0,0
"658",7.54446125,-0.683179319,8.163174668,0.333610714,0,0
"659",7.740703106,-0.817001045,8.328137825,0.314425588,0,0
"660",7.971373558,-0.186961219,8.44845119,0.396495938,0,0
"661",8.144264221,-0.31763947,8.374662478,0.333610714,0,0
"662",8.989706039,-0.922681272,9.349263584,0.337873906,0,0
"663",9.972561836,-1.638343096,10.44018337,0.422076404,0,0
"664",8.654253006,-0.310604096,8.903382814,0.403957069,0,0
"665",8.191864967,0.058228914,8.545743041,0.31762296,0,0
"666",7.515122414,-0.301772475,8.189964331,0.192918584,0,0
"667",9.745484352,-1.271306276,10.35563857,0.056489907,0,0
"668",11.18653774,-0.74185729,11.65714668,0.084201962,0,0
"669",9.726773262,-0.502654731,10.29997649,0.17479898,0,0
"670",9.614207268,-1.850152612,10.48999855,0.15667963,0,0
"671",10.695858,-2.167342901,11.59289383,0.08526776,0,0
"672",13.40163136,-2.012714624,14.09537498,-0.248343229,0,0
"673",11.16737747,-1.400637388,11.67958952,-0.197182849,0,0
"674",10.69510937,-3.139271736,11.56830513,0.036238696,0,0
"675",11.56989002,-5.300776959,13.10070762,0.555307686,0,0
"676",11.76358795,-5.557792664,13.85741898,1.078639865,0,0
"677",11.60596561,-4.226311207,13.75573555,1.391999722,0,0
"678",11.6308136,-3.380120993,13.24413645,1.616894007,0,0
"679",11.69038963,-2.911146164,12.58780077,1.657396436,0,0
"680",9.99980545,-2.620899916,10.68945295,1.443160653,0,0
"681",8.281079292,-3.415447474,9.108111495,1.00829351,0,0
"682",8.83582592,-2.509082317,9.372679156,0.563834369,0,0
"683",10.38151169,-1.138083339,10.85269438,0.187589079,0,0
"684",10.35786057,-1.902842999,11.04044329,-0.146021918,0,0
"685",9.379345894,-2.76789403,10.24036792,-0.142823994,0,0
"686",7.882009506,-3.829486609,8.983577156,0.021316741,0,0
"687",6.985224247,-5.034480572,8.627976056,-0.212104276,0,0
"688",6.504573822,-4.571793079,7.950997478,-0.690671146,0,4
"689",6.229146481,-3.339555264,7.145323562,-0.951804459,0,0
"690",5.899531841,-2.499202967,6.479939536,-1.153250217,0,0
"691",5.749094486,-1.819915414,6.160578876,-1.324852109,0,0
"692",5.554798603,-1.239572287,5.942344857,-1.481531739,0,0
"693",4.915777683,-1.810335398,5.701217374,-1.684043288,0,0
"694",4.905448914,-2.160906315,6.117617148,-1.944110751,0,0
"695",6.996301174,-1.992955685,7.891920048,-2.169004917,0,0
"696",9.600436211,-0.380209357,10.2526692,-2.291578054,0,0
"697",10.85078526,-0.164657593,11.63038363,-2.121041775,0,0
"698",11.86672306,-1.618434429,12.53925051,-1.987810612,0,0
"699",13.04761696,-3.55645442,13.69805808,-1.633948088,0,0
"700",10.81081867,-5.100343704,11.96550689,-1.067981958,0,0
"701",9.259295464,-5.535937786,10.80887009,-0.371981829,0,0
"702",9.446855545,-3.699556828,10.30819113,-0.176931366,0,0
"703",9.963581085,-3.190165997,10.58192995,-0.120441459,0,0
"704",11.18010044,-1.711840153,11.35104699,0.008526376,0,0
"705",11.25868702,0.29324019,11.2950389,-0.391167224,0,0
"706",11.5501318,-0.062270507,11.69270413,-0.491356939,0,0
"707",18.54553413,-0.658480704,18.55934481,0.76527983,0,1
"708",18.92185211,-8.974737167,21.20986415,2.512208223,0,0
"709",10.31519985,0.757125557,14.9148646,1.693635464,0,0
"710",6.074069023,0.002245331,10.27821783,-0.306965262,0,0
"711",10.8344698,-0.428409129,12.08920195,-0.442328155,0,0
"712",12.22283268,0.267643422,12.99529181,-0.700263798,0,0
"713",11.92195797,0.958905935,12.09479213,-0.658695638,0,0
"714",8.718319893,-0.060623933,8.732226822,-0.590481401,0,0
"715",9.46122551,0.396525413,9.48251581,-0.723712146,0,0
"716",8.872649193,-4.639601708,10.67784566,-0.715185762,0,0
"717",8.606801987,-2.71220994,9.846942687,-0.736502767,0,0
"718",8.447683334,-2.194137335,9.523154701,-0.70985651,0,0
"719",8.362060547,-0.398471385,8.875883676,-0.58302027,0,0
"720",8.52402401,0.617166579,8.793462007,-0.415681899,0,0
"721",9.084608078,0.03637436,9.394394408,-0.449788988,0,0
"722",9.085656166,-2.047741652,9.92890645,-0.381574512,0,0
"723",8.4578619,-2.909050703,9.669559923,0.095925994,0,0
"724",9.004824638,-1.434017897,10.15323085,0.667221725,0,0
"725",8.983568192,-1.211430788,10.15682278,0.541451514,0,0
"726",9.46706295,-1.030756474,10.15937527,0.452985853,0,0
"727",7.756420612,-0.239951015,7.995831357,0.346400827,0,0
"728",6.825955391,-0.486937404,7.06067303,0.334676534,0,0
"729",8.118816376,-1.242416382,8.811722092,0.449788481,0,0
"730",11.60416889,-1.937271476,12.66693583,0.509476006,0,0
"731",13.32708645,-2.06809926,14.8690543,0.574492872,0,0
"732",11.97764206,-2.226320267,13.03469503,1.206541896,0,0
"733",12.14409637,-3.481160879,12.69686409,1.798088551,0,0
"734",12.44033051,-3.19720149,12.84820732,2.057090282,0,0
"735",11.14911556,-4.295617104,12.076432,2.026180267,0,0
"736",9.925709724,-5.728736877,11.49072688,1.892949104,0,0
"737",10.20921993,-5.623206615,11.82394194,1.827932477,0,0
"738",9.967921257,-3.147654533,11.6499255,1.069047213,0,0
"739",8.665779114,-1.434167624,10.18196452,0.329347283,0,0
"740",8.398735046,-0.929117918,9.313716937,-0.21636799,0,0
"741",6.996600628,-1.645528078,7.247844507,-0.327216208,0,0
"742",6.134692669,-3.867657185,7.287477376,-0.334677309,0,0
"743",5.256020069,-4.642595768,7.013184529,-0.464710683,0,1
"744",4.523892403,-4.615202427,6.573743507,-0.755687952,0,0
"745",4.944667339,-3.212918758,6.006957153,-1.061586857,0,0
"746",5.910159588,-2.397115231,6.378430509,-1.258768916,0,0
"747",7.545808315,-2.352208614,7.972278009,-1.436766028,0,0
"748",8.408464432,-2.11330533,8.86502245,-1.48259747,0,0
"749",8.551267624,-2.182311773,9.410042743,-1.317390919,0,0
"750",8.004454613,-3.196452856,9.268322094,-1.296073914,0,0
"751",9.190737724,-3.583697557,10.31627498,-1.470873237,0,0
"752",10.79195786,-2.782264233,11.34541515,-1.545482755,0,0
"753",10.97547627,-2.867736578,11.37560229,-1.140459895,0,0
"754",12.50185204,-4.297113895,13.24090033,-0.394364893,0,0
"755",13.76282978,-4.874313831,14.64974109,0.088465154,0,0
"756",15.38889885,-4.297413349,16.02008894,0.348532409,0,0
"757",11.6182394,-2.287543058,11.84300918,1.082903385,0,0
"758",6.035748482,-1.536554694,6.284980539,1.26622951,0,0
"759",6.011648655,-0.521814883,6.274948679,-0.045831937,0,0
"760",12.82503033,-1.057101727,13.04266926,-1.292876244,0,0
"761",19.39022827,-8.738528252,21.91947279,1.38773644,0,0
"762",19.51342201,-3.709585905,23.11540394,2.316091776,0,0
"763",5.429808617,-1.614692211,9.492130031,0.823901892,0,0
"764",2.130519629,-3.368594885,4.283780207,-0.424208552,0,0
"765",4.522994518,-1.235530734,5.045725405,-1.201213241,0,0
"766",11.09283257,3.73892498,12.38484371,-1.513507485,0,0
"767",12.79015255,4.18080616,13.53785203,-0.925158203,0,0
"768",10.91290665,0.718805254,11.23360656,0.015987223,0,0
"769",12.16160965,-2.615510941,12.51028995,0.110848218,0,0
"770",12.2349577,-5.567821503,13.97008479,-0.531859398,0,0
"771",11.35224247,-3.160527706,12.88758546,-0.531859398,0,0
"772",8.848698616,-1.466799736,9.990126886,-0.370916009,0,0
"773",8.148903847,-1.811233521,8.392900609,0.139626071,0,0
"774",8.690927506,-0.614621878,8.93225584,0.245145306,0,0
"775",9.112300873,-1.619632006,9.75368567,0.112979814,0,0
"776",8.522975922,-3.338657141,9.793385543,-0.322953016,0,0
"777",9.298513413,-2.95186162,10.43489015,-0.656563997,0,0
"778",10.57550812,-1.211730242,10.8548492,-0.37304762,0,0
"779",11.00451565,-0.414937139,11.25794058,0.049028795,0,0
"780",9.726324081,-1.290466428,10.17813223,0.196115986,0,0
"781",8.867559433,-2.336491346,9.37143609,0.183325887,0,0
"782",9.022787094,-2.483784914,9.362517325,0.175864771,0,0
"783",11.75355816,-1.034349084,11.81023405,0.298437834,0,0
"784",13.08309364,-0.649649024,13.282346,0.554241896,0,0
"785",12.17972183,-1.882784724,12.64102878,0.927289009,0,0
"786",10.56667614,-2.54740262,11.18496999,1.26516366,0,0
"787",8.7189188,-4.019890785,9.762417833,1.55507493,0,0
"788",7.260052681,-5.003046036,8.822322052,1.391999722,0,0
"789",6.523733616,-3.77634716,7.543165476,0.77167517,0,0
"790",6.282435417,-0.702040076,6.432740461,0.059687298,0,0
"791",5.534291267,0.584085405,5.770124298,-0.436998636,0,0
"792",5.116360664,-0.257464588,5.359138684,-0.688539505,0,0
"793",5.168152809,-0.178279266,5.407687134,-0.970989585,0,0
"794",7.367379665,-2.521506548,8.060619046,-1.195883989,0,0
"795",15.21211624,-7.24613142,17.42755215,-1.002965331,0,0
"796",19.03516579,-6.707102299,20.72521743,-0.170536593,0,0
"797",13.99769211,-3.471580744,14.57204665,0.629916966,0,0
"798",7.998616695,-1.706002355,8.183321986,0.806848347,0,0
"799",7.727231026,0.443078607,7.77440247,0.640575469,0,0
"800",8.354127884,-0.540525973,8.418855993,0.397561759,0,0
"801",9.035959244,-0.520168304,9.118231785,0.297372043,0,0
"802",12.42985153,-1.289268971,13.39871822,0.52333194,0,0
"803",11.41930389,-1.631307721,13.9677521,-0.148153514,0,0
"804",10.61143303,-2.44965601,12.52723047,-0.354928255,0,0
"805",7.297624588,-2.672542334,8.379567737,-0.094861001,0,0
"806",8.807085991,-2.413880348,9.353076988,0.035172634,0,0
"807",10.29963207,-2.090253353,10.63542436,0.024514131,0,0
"808",11.0543623,-1.706900477,11.19334046,-0.049029328,0,0
"809",8.847052574,-1.407223702,9.079041427,0.00959244,0,0
"810",8.384663582,-2.119143248,8.847432047,-0.061819427,0,0
"811",8.112679482,-2.693199396,8.75048914,-0.240882129,0,0
"812",8.357720375,-3.06263113,9.190171457,-0.133231297,0,0
"813",8.87549305,-2.747536421,9.541089792,0.425273806,0,0
"814",9.481882095,-0.540226579,9.842411786,0.750357866,0,0
"815",9.556127548,-2.318678379,10.11435017,0.614995003,0,0
"816",10.110425,-2.753673792,10.6860065,0.292042524,0,0
"817",10.17389297,-1.683099985,10.64654045,0.219564855,0,0
"818",9.319470406,0.710123301,10.35548975,0.414615303,0,4
"819",8.525671005,0.393232256,10.49122871,0.377310813,0,0
"820",10.17449188,-3.201542378,12.46962985,0.533990443,0,0
"821",12.90047359,-4.28229475,14.36707174,0.975252509,0,0
"822",12.87233162,-4.656965733,14.29662419,1.426107049,0,0
"823",11.66569138,-4.296665192,12.97329081,1.814076066,0,0
"824",10.75184155,-4.230802059,11.87613199,1.911068678,0,0
"825",9.822124481,-2.619552612,10.25618018,2.04323411,0,0
"826",8.541388512,-2.217937708,8.857525883,1.944110036,0,0
"827",7.208110809,-2.910547495,7.908353141,1.750125289,0,0
"828",6.837182045,-3.494632959,7.993084303,1.496453166,0,0
"829",7.830216885,-3.737577677,9.043620471,0.956066847,0,0
"830",8.621920586,-4.123175621,9.776529459,0.294174105,0,0
"831",7.085066319,-4.096082211,8.349843975,-0.077807181,0,0
"832",5.481600761,-4.115242481,6.868713279,-0.277121633,0,0
"833",4.209845543,-4.061653614,5.84986533,-0.449788988,0,0
"834",4.138144493,-4.106111527,5.87256036,-0.716251612,0,0
"835",4.540208817,-4.008963108,6.155604914,-1.134064555,0,0
"836",4.885540485,-3.356919289,6.116298801,-1.573194981,0,0
"837",6.725514412,-1.944755912,7.086640816,-1.815142989,0,0
"838",9.598190308,-1.438807964,9.774377328,-1.77464056,0,0
"839",10.87428665,-2.494412899,11.21118113,-1.741598964,0,0
"840",11.18833351,-4.685855866,12.24368185,-2.036839485,0,0
"841",11.28129005,-4.315526009,12.2090792,-2.304367781,0,0
"842",11.24701214,-4.025578976,11.9803191,-1.882291317,0,0
"843",10.27957344,-3.179388523,10.76248792,-1.125537634,0,0
"844",9.692494392,-3.459605694,10.32233455,-0.653366625,0,0
"845",10.20682526,-3.098556519,10.78503528,-0.387969852,0,0
"846",10.19065857,-2.328408003,10.56099424,-0.302701533,0,0
"847",10.70618629,-2.317630529,10.9560334,-0.25580436,0,0
"848",11.63021469,-1.219514012,11.71753249,-0.176931366,0,0
"849",11.85399914,-1.651216269,12.18600001,0.083136164,0,0
"850",12.3030653,-2.624043226,12.75113508,0.010658237,0,0
"851",12.9248724,-3.220103741,13.37310892,-0.141758204,0,0
"852",13.71343231,-3.115022183,14.12877935,-0.104453437,0,0
"853",14.09469032,-3.843407631,14.6333954,0.489224821,0,0
"854",14.003829,-3.728596449,14.49833196,0.820703983,0,0
"855",13.7774992,-3.995640993,14.34578808,0.799387217,0,0
"856",7.857610226,-3.635489941,8.706365725,0.289910913,0,1
"857",5.907016277,-2.431094408,6.494123297,-0.15028511,0,0
"858",6.020330429,-1.58355701,6.348118072,-0.302701533,0,0
"859",9.222472191,-0.667312324,9.834021808,-0.556374013,0,0
"860",11.88468552,-1.684596896,12.5046915,-0.380508721,0,0
"861",12.22193432,-2.445614338,12.94958993,-0.249409035,0,0
"862",9.489665985,-2.12632823,10.1658387,-0.156680152,0,0
"863",8.394094467,-2.40444994,9.00595108,-0.363455176,0,0
"864",8.997639656,-2.340233564,9.363555433,-0.523332715,0,0
"865",10.24589348,-1.426832914,10.3452081,-0.359191984,0,0
"866",9.547446251,-0.803678751,9.611198538,0.06821394,0,0
"867",9.328600884,-1.784588933,9.6562101,0.345335037,0,0
"868",10.24215126,-2.740501165,11.00690833,0.387969047,0,0
"869",10.39169025,-1.866019607,11.03668719,0.203576833,0,0
"870",9.447453499,-0.500259697,9.772501485,0.115111411,0,0
"871",9.273066521,-0.43724075,9.347862334,0.095925994,0,0
"872",9.68486023,-2.214494944,10.04213839,0.010658237,0,0
"873",11.30015087,-2.068847895,11.92161646,-0.028778385,0,0
"874",11.03565121,-0.672252059,11.81378587,0.040501885,0,0
"875",9.424102783,-1.048719168,9.947263899,0.120440662,0,0
"876",9.10466671,-1.570085049,9.402081247,0.148152724,0,0
"877",7.9251194,-1.140179038,8.18232482,0.198247835,0,0
"878",8.378376961,-1.603615284,8.576986491,0.252606154,0,0
"879",9.913285255,-2.014959812,10.22985237,0.367718101,0,0
"880",8.943601608,-1.932331681,9.589958311,0.427405387,0,0
"881",7.77587986,-2.211201668,8.508522249,0.326149881,0,0
"882",7.13955307,-2.066303015,7.798773586,0.265396267,0,1
"883",5.980064392,-1.687890053,6.405315052,0.294174105,0,0
"884",7.194339275,-2.424358606,7.740446047,0.256869346,0,0
"885",13.31930256,-3.673660517,14.28404052,0.56170249,0,0
"886",9.755812645,-2.17258215,11.00251776,0.881457567,0,0
"887",6.773264885,-3.450774193,8.377170111,0.97738409,0,0
"888",6.930288315,-2.69349885,7.781363,0.618192673,0,0
"889",9.205856323,-2.550546169,9.655807534,0.31762296,0,0
"890",12.66710854,-2.782862902,12.97554004,0.439129978,0,0
"891",9.830357552,-3.049907684,10.37828141,0.687472642,0,0
"892",8.750802994,-3.187771082,9.81304969,0.546780765,0,0
"893",9.023236275,-2.715952158,9.975730055,0.391166419,0,0
"894",10.42327499,-3.154839516,11.20112573,0.359191179,0,0
"895",11.19896126,-2.208208084,11.57682087,0.221696436,0,0
"896",10.76112175,-2.823129177,11.21816105,0.107650831,0,0
"897",9.241033554,-3.576362848,10.27334096,0.044765607,0,0
"898",8.743318558,-3.382515907,9.795337222,0.172667384,0,0
"899",9.194479942,-4.849764824,10.44309436,0.281384021,0,0
"900",9.599388123,-5.081632614,10.89643519,0.200379431,0,0
"901",11.9529438,-5.198689461,13.1285477,-0.241948456,0,0
"902",12.98834038,-5.028792381,14.12363826,-0.320820898,0,4
"903",13.26436615,-2.603685617,13.71640905,-0.293108851,0,0
"904",11.14597225,-4.894521713,12.1867494,-0.018119881,0,0
"905",11.16602993,-8.16207695,13.89111602,0.157745421,0,0
"906",9.633666992,-5.006040096,11.1407469,-0.425274342,0,0
"907",9.719887734,-5.356161594,11.68581962,-0.662959039,0,0
"908",11.80505085,-4.390370369,12.88949924,-0.260067791,0,0
"909",11.97883987,-3.542383671,12.4979228,0.421010613,0,0
"910",11.29521179,-3.610791206,11.86118131,0.537188113,0,0
"911",10.12763977,-5.795947075,11.79285812,0.789794505,0,0
"912",8.77969265,-4.432282925,9.92112794,0.617126882,0,0
"913",8.973838806,-2.488724709,9.326216255,0.455117464,0,0
"914",11.4938488,-2.870430946,11.84908768,0.548912406,0,0
"915",11.20090771,-3.475472689,11.76001459,1.034939766,0,0
"916",9.906998634,-4.71070385,11.02995591,1.161776066,0,0
"917",6.894512653,-5.1956954,8.815966635,1.042400956,0,0
"918",5.390290737,-4.50263691,7.028927839,0.648036599,0,0
"919",5.317092896,-4.171076298,6.767588271,0.454051644,0,0
"920",5.815556526,-1.829495549,6.346548581,0.141757667,0,0
"921",6.067781925,-0.983754277,6.401489275,0.082070366,0,0
"922",5.36574173,-1.759740591,5.799048826,-0.041568484,0,0
"923",4.859195232,-3.557352543,6.036039832,-0.262199402,0,0
"924",4.688549995,-4.714595795,6.657822401,-0.565966725,0,0
"925",4.192631245,-5.255720615,6.784110455,-0.897446156,0,0
"926",3.971690893,-5.246589661,6.592010703,-1.088233113,0,0
"927",4.92895031,-3.22115159,5.942445964,-1.663792372,0,0
"928",8.548423767,-1.72441411,9.122700859,-1.81620872,0,0
"929",11.57557869,-1.37040019,12.31834436,-1.465543985,0,0
"930",14.98758316,-1.210682392,16.06524516,-1.123406053,0,0
"931",9.099128723,-3.747008085,10.56873639,-0.978450716,0,0
"932",10.10458755,-4.624932289,11.34338008,-0.883589685,0,0
"933",11.56465149,-5.561834335,12.95630403,-0.596876204,0,0
"934",12.1635561,-4.82806015,13.13248717,-0.303767353,0,0
"935",11.40238857,-3.774550676,12.09719902,-0.04796353,0,0
"936",9.658065796,-4.093836784,10.62073243,-0.103387639,0,0
"937",11.64114189,-3.891906738,12.38682038,-0.478566855,0,0
"938",16.34481049,-4.024680615,17.25793805,-0.525464296,0,0
"939",19.50309372,-6.40443182,21.01705168,0.676814437,0,0
"940",18.40048599,-5.868696213,20.48082227,1.718149781,0,0
"941",7.024891853,-0.389340371,9.938093828,0.464710146,0,0
"942",2.434237957,-0.967438221,3.056802393,-0.481764257,0,0
"943",2.823728085,-2.053729296,3.521124578,-0.249409035,0,0
"944",6.783443928,-1.082099795,6.886289171,-0.506278932,0,0
"945",12.41817665,0.603844285,12.50780213,-0.572362065,0,0
"946",14.15830803,-0.937201083,14.44547781,-0.299504161,0,0
"947",11.0112524,-2.255958796,12.42662424,-0.690671146,0,0
"948",9.368268967,-2.245630264,10.79841075,-0.45405218,0,0
"949",8.499475479,-1.215023398,9.521164858,-0.438064963,0,0
"950",8.437952995,1.513053536,9.401067681,-0.301635742,0,0
"951",9.147328377,1.05740118,9.555425683,-0.095926799,0,0
"952",9.973160744,-0.089064792,10.11585152,-0.172668174,0,0
"953",10.21011829,-0.799487472,10.37332103,-0.295240969,0,0
"954",10.42492104,-1.735041976,10.74714729,-0.302701533,0,0
"955",9.12607193,-1.613644362,9.57861526,-0.08953201,0,0
"956",9.360035896,-0.902173936,10.01679422,0.051160391,0,1
"957",9.718240738,-0.792152703,10.61029651,0.133230761,0,0
"958",9.275910378,-1.517693996,10.34086638,0.246211112,0,0
"959",7.218738556,-1.28043735,7.907285359,0.269659966,0,0
"960",6.231391907,-0.666114807,6.871462102,0.255803555,0,0
"961",6.586153984,-0.386196911,7.280365591,0.219564855,0,0
"962",10.13647079,-2.232307911,10.97584622,0.108716629,0,0
"963",11.15225887,-2.124681711,11.92535518,0.099123918,0,0
"964",6.448740006,-0.036823425,7.180692683,0.146021128,0,0
"965",3.673810244,-1.333427072,4.059044645,0.240881592,0,0
"966",3.754193068,-1.840422869,4.186106208,0.240881592,0,0
"967",8.779243469,-1.221010923,8.87812256,0.240881592,0,0
"968",12.54705811,-2.417622566,13.60490854,0.265396267,0,0
"969",7.306605816,-1.774410129,8.461502409,0.421010613,0,0
"970",6.113287449,-3.00799489,6.836700571,0.584085584,0,0
"971",7.888745308,-2.997666359,8.491388783,0.376244754,0,0
"972",11.50372791,-1.905537367,12.02989415,0.238749996,0,0
"973",9.984986305,-1.572180629,11.36872439,0.148152724,0,0
"974",8.045469284,-2.027384043,10.11260416,0.014921425,0,0
"975",7.288044453,-2.206561327,9.356570019,0.114045613,0,0
"976",8.259524345,-2.689157963,9.937371787,0.199313641,0,0
"977",12.86424828,-2.178869009,13.64333349,0.577690244,0,0
"978",17.2050724,-2.519860029,17.98156727,1.010425687,0,0
"979",16.03809929,-3.76916194,16.86091625,1.055191279,0,0
"980",12.89089298,-4.512366295,13.75520143,1.427172899,0,0
"981",10.72310162,-6.312822342,12.5285124,1.686174274,0,0
"982",11.60596561,-5.526208401,13.1052388,1.603038192,0,0
"983",11.68874359,-3.388653278,12.56140253,1.457016707,0,0
"984",10.72310162,-2.286195755,11.53097807,1.395197392,0,0
"985",10.2434988,-2.891836405,11.43022016,1.198015332,0,0
"986",11.21482849,-3.486549616,12.20885111,1.095693469,0,0
"987",11.23803043,-4.201911926,12.13267604,0.786597133,0,0
"988",10.37342834,-3.538192272,11.08967313,0.450854272,0,0
"989",8.634794235,-3.701951742,9.502382482,0.315491378,0,0
"990",6.798113346,-3.613485813,7.702643637,0.187589079,0,0
"991",5.413792133,-3.808530092,6.635526535,-0.027712587,0,1
"992",4.409979343,-3.485950947,5.636826523,-0.277121633,0,0
"993",4.930746555,-2.711012363,5.627030409,-0.568098307,0,0
"994",4.915029049,-2.148033142,5.383895433,-0.887853444,0,0
"995",4.808600426,-1.859882355,5.202147429,-1.175632715,0,0
"996",4.830006123,-1.713636518,5.229990293,-1.462346554,0,0
"997",4.971162319,-1.74626863,5.489987363,-1.671253204,0,0
"998",5.430557251,-1.975891113,5.97387188,-1.740533114,0,0
"999",7.587721348,-1.786385179,8.124182088,-1.805550218,0,0
"1000",10.42492104,-0.480650485,11.00661131,-1.657397032,0,0
"1001",11.62647247,-1.943708062,12.241042,-1.44849062,0,0
"1002",12.17822552,-2.921774149,12.70477232,-1.468741655,0,0
"1003",11.57782364,-5.107977867,12.65667438,-1.189489126,0,0
"1004",9.487121582,-6.498586178,11.50059839,-0.042634279,0,0
"1005",9.332492828,-4.234544277,10.44041393,0.386903256,0,0
"1006",10.26565266,-3.492237806,10.96203964,0.459381163,0,0
"1007",12.56412315,-2.046693802,12.83850852,0.198247835,0,0
"1008",13.73259258,-2.229912758,13.98104556,0.013855628,0,0
"1009",11.87555504,-3.009940863,12.28582694,-0.059687831,0,0
"1010",9.247170448,-3.426823854,9.891525155,-0.027712587,0,0
"1011",10.08482838,-3.043321371,11.03749042,-0.357059866,0,0
"1012",11.31526947,-2.529889107,12.09418213,-0.589415073,0,0
"1013",13.38591385,-4.587510109,14.42550571,-0.561703026,0,0
"1014",17.49412155,-8.00729847,19.88089612,0.443393141,0,0
"1015",18.22370338,-6.822662354,20.30758354,0.578756034,0,0
"1016",17.23007011,-3.697011948,18.11759092,0.659760594,0,0
"1017",6.998396874,-1.465302944,7.205910101,0.559570909,0,0
"1018",4.333338738,-1.788331151,4.707427329,0.424208015,0,0
"1019",3.059787035,-1.933978319,3.666282778,-0.149219319,0,0
"1020",6.690337181,-1.401834846,6.857233847,-0.430603862,0,0
"1021",11.18354416,-0.005538483,11.3405024,-0.929421365,0,0
"1022",13.68319607,-0.023800507,13.82542071,-0.937948048,0,0
"1023",11.56539917,0.514330447,11.98626241,-0.819638968,0,0
"1024",9.305398941,-0.805325329,9.8885926,-0.706659138,0,0
"1025",9.709259033,-3.104544163,10.51079078,-0.471105993,0,0
"1026",9.833950043,-3.314108372,10.47472027,-0.494554877,0,0
"1027",10.2846632,-2.099534035,10.53332753,-0.438064963,0,0
"1028",10.82578754,1.176553369,10.88954891,-0.126836509,0,0
"1029",10.58613586,1.588945746,10.7047216,-0.054358847,0,0
"1030",9.346413612,-0.75278455,9.419253059,-0.031975776,0,0
"1031",9.817933083,-3.678899765,10.94475764,0.08526776,0,0
"1032",9.843231201,-0.961600363,10.86699829,0.13429682,0,0
"1033",9.291777611,-0.629890144,10.36676875,0.066082351,0,0
"1034",8.331225395,-0.816551983,8.835664645,-0.124704652,0,0
"1035",8.432864189,-1.031654716,8.792736211,-0.098058388,0,0
"1036",8.221952438,-1.269959092,8.660944688,-0.057556238,0,0
"1037",9.721982956,-2.891836405,10.35294028,0.203576833,0,4
"1038",9.691296578,-1.768422604,9.933301507,0.24301371,0,0
"1039",9.723480225,-1.326691151,9.902281728,0.13429682,0,0
"1040",9.470056534,-0.895587623,9.722357274,0.081004575,0,0
"1041",8.73448658,-0.714613974,9.329179612,-0.025580462,0,0
"1042",7.659421921,-1.955832839,8.743587651,-0.042634279,0,0
"1043",8.531358719,-3.123404741,9.650679775,0.123638056,0,0
"1044",11.51495457,-1.64537847,11.86867186,0.063950755,0,0
"1045",9.463171005,-0.36703673,9.781118179,0.042633481,0,0
"1046",7.26424408,-1.208287358,7.687873397,0.049028795,0,0
"1047",9.576635361,-2.612217903,10.06163486,0.176930577,0,0
"1048",10.59930897,-2.01301384,11.4639114,0.185457483,0,0
"1049",9.128018379,-2.066452742,10.13040318,0.246211112,0,0
"1050",7.72543478,-0.912502468,7.869839385,0.32188642,0,0
"1051",7.570656776,-0.198636934,7.5778431,0.196115986,0,0
"1052",8.457562447,-1.510508895,8.7343536,0.052226186,0,0
"1053",12.02359676,-2.255210161,12.91984319,-0.139626607,0,0
"1054",11.83932972,-2.03741312,12.85995286,-0.29097724,0,0
"1055",9.733359337,-1.298848987,10.24548352,-0.105519235,0,0
"1056",10.74211121,-2.697839737,11.14675046,0.141757667,0,0
"1057",11.99141407,-2.002086639,12.29852524,0.208906353,0,0
"1058",10.73941708,-2.033072233,11.15131925,0.292042524,0,0
"1059",11.31811428,-1.905387759,11.82725225,0.540385723,0,0
"1060",12.48433876,-3.297941923,13.16551712,1.036005616,0,0
"1061",12.6879158,-4.079317093,13.50602362,1.605169773,0,0
"1062",11.42349434,-3.451522589,12.14478819,1.915332198,0,0
"1063",9.917776108,-3.720812559,10.66304439,1.947307348,0,0
"1064",9.835297585,-2.619402885,10.18172848,1.612630606,0,0
"1065",9.942624092,-0.84065187,9.978951236,1.179895639,0,0
"1066",10.62565422,-0.525706768,10.66987272,0.940079331,0,0
"1067",9.393566132,-3.895349503,10.63027572,0.694933772,0,0
"1068",8.804390907,-4.360282898,10.34524719,0.573427081,0,0
"1069",7.132667542,-3.78368187,8.479547466,0.139626071,0,1
"1070",5.444777489,-2.366878033,5.938493184,-0.172668174,0,0
"1071",5.889352799,-1.879491568,6.186918906,-0.34000659,0,0
"1072",6.620432854,-2.19129324,6.996020957,-0.685341895,0,0
"1073",8.508605957,-2.689606905,8.92643939,-1.295007944,0,0
"1074",8.791518211,-2.550096989,9.157122365,-1.475136876,0,0
"1075",8.730594635,-1.554068327,8.883809191,-1.657397032,0,0
"1076",8.061935425,-1.785337329,8.260826636,-1.710689545,0,0
"1077",8.284971237,-1.757944346,8.476356384,-1.806616068,0,0
"1078",9.238937378,-1.938768268,9.456515727,-1.962230086,0,0
"1079",10.55529976,-2.705174446,10.898483,-1.722413778,0,0
"1080",12.30905342,-3.55540657,12.81302638,-1.329115272,0,0
"1081",12.99193287,-4.189787388,13.65646509,-1.060521126,0,0
"1082",11.46570683,-5.618266583,13.15263089,-0.135363415,0,0
"1083",9.955497742,-2.859204292,10.64157642,0.081004575,0,0
"1084",9.176517487,-2.362237692,9.673918624,0.075675055,0,0
"1085",9.740843773,-1.901645541,10.00295862,0.001065797,0,0
"1086",10.50754929,-0.796942771,10.59971608,0.056489907,0,1
"1087",11.33413029,-2.218985558,11.65561901,0.004263188,0,0
"1088",13.67361546,-4.203409195,14.49651321,-0.059687831,0,0
"1089",16.9375782,-3.285667419,17.72722701,0.421010613,0,0
"1090",14.24692345,-2.810256004,14.75217331,1.323785424,0,0
"1091",10.37672138,-1.678459644,10.76409237,1.465543151,0,0
"1092",5.364095211,-1.396745443,5.581883294,0.746094704,0,0
"1093",7.334298134,-2.941233635,7.988216782,-0.716251612,0,0
"1094",10.30576897,0.00943039,10.34306218,-1.086101532,0,0
"1095",11.48471737,0.737366617,11.52578631,-0.875063062,0,0
"1096",10.89239883,-2.598147154,11.32336039,-0.058622036,0,0
"1097",10.53943348,-0.990340591,11.83263606,0.019185146,0,0
"1098",10.25262928,-0.960103452,12.17581133,-0.090597808,0,0
"1099",8.315957069,0.472716987,10.75283634,-0.46044749,0,0
"1100",8.672664642,-1.072370052,9.371377067,-0.331479937,0,0
"1101",9.635762215,-2.4792943,10.17397267,-0.077807181,0,0
"1102",9.88199997,-2.063009977,10.17983215,0.061818894,0,0
"1103",10.16700745,0.222138062,10.2244301,0.147086918,0,0
"1104",10.19769382,-2.036215782,10.53108917,0.056489907,0,0
"1105",10.48853874,-4.033661842,11.53461587,0.011724034,0,0
"1106",9.822873116,-2.492017746,11.00214955,-0.099124454,0,0
"1107",8.427924156,-0.523311794,9.169234824,0.172667384,0,0
"1108",8.09546566,-0.317190409,8.628591039,0.27925241,0,0
"1109",8.361462593,-1.479373574,8.667133857,0.208906353,0,0
"1110",9.197323799,-2.530338049,9.753981731,0.09805759,0,0
"1111",9.470505714,-3.030747414,10.28160136,0.073543459,0,0
"1112",9.18729496,-1.426982522,9.867648708,0.102321312,0,0
"1113",8.693771362,-0.617016912,9.370168433,0.13856028,0,0
"1114",8.41729641,-1.018182635,9.092975177,0.148152724,0,0
"1115",10.09366035,-1.182241559,10.32493664,0.17479898,0,0
"1116",11.18563938,-1.199156284,11.53925953,0.171601579,0,0
"1117",10.25143242,-0.678688645,10.4951673,0.23128888,0,0
"1118",9.571845055,-0.926872551,9.691148821,0.282449812,0,0
"1119",8.9102211,-0.278570712,8.969035819,0.234486803,0,0
"1120",7.873476982,-0.502055943,8.110356207,0.189721197,0,0
"1121",10.11341858,-1.340163112,10.51713254,0.164140731,0,0
"1122",13.00495625,-2.322570086,13.8893441,0.166272327,0,0
"1123",11.74068546,-2.122885466,13.06912283,0.114045613,0,0
"1124",8.900042534,-2.503394127,9.585265742,0.075675055,0,0
"1125",7.877967835,-2.115700483,8.425598793,0.006394783,0,0
"1126",8.235723496,-2.152523756,8.741436501,-0.019185679,0,0
"1127",8.114775658,-2.167342901,8.60795612,0.028777853,0,0
"1128",8.306825638,-1.878743172,8.703659288,0.101255514,0,0
"1129",9.479786873,-2.306403875,10.07067047,0.251540363,0,0
"1130",12.38075447,-3.602708101,13.69358823,0.483895838,0,0
"1131",13.59502888,-4.58316946,15.24091156,0.658694804,0,0
"1132",13.1447649,-4.937931538,14.60232168,1.543350339,0,0
"1133",11.29146957,-5.916296959,12.75846492,2.064551115,0,0
"1134",9.726623535,-4.298461437,10.77754267,2.247877359,0,0
"1135",9.047934532,-2.330204248,9.837938513,2.00592947,0,0
"1136",8.575366974,-1.766326904,8.781827752,1.742664218,0,0
"1137",9.155560494,-3.426524401,10.0332881,1.563601494,0,0
"1138",9.196426392,-3.147654533,10.79174117,0.968857467,0,0
"1139",9.168883324,-3.514092445,10.4564067,0.332544923,0,0
"1140",7.624544621,-3.06367898,8.316947952,-0.046897735,5,4
"1141",6.127208233,-3.200494528,6.937073566,-0.19291912,0,0
"1142",4.947062492,-3.217708826,5.908053653,-0.320820898,0,0
"1143",4.429139614,-3.715274096,5.782108388,-0.58088845,0,0
"1144",4.857848167,-4.003424645,6.295900785,-0.95713371,0,0
"1145",5.814059734,-3.062182188,6.576726697,-1.27795434,0,0
"1146",7.486382008,-2.091750145,7.778538733,-1.516704917,0,0
"1147",8.017477989,-1.436412931,8.146764157,-1.632882357,0,0
"1148",8.373138428,-1.654659152,8.535071331,-1.668055534,0,0
"1149",8.748856545,-2.455643416,9.106655546,-1.741598964,0,0
"1150",9.452094078,-3.178639889,9.973224652,-1.729874969,0,0
"1151",10.07195568,-3.059936762,10.54183111,-1.565734148,0,0
"1152",10.35052586,-3.296145678,10.88771489,-1.313127279,0,0
"1153",10.85318089,-4.000730515,11.5820464,-0.958199501,0,0
"1154",11.34760284,-4.123924255,12.29106265,-0.595810413,0,0
"1155",10.51982403,-2.684517622,10.84518907,-0.270726293,0,0
"1156",10.20368099,-2.569107533,10.53930646,-0.181194827,0,0
"1157",11.10570526,-2.506537676,11.46957419,-0.08953201,0,1
"1158",12.70767403,-1.743424535,13.26171012,0.046897203,0,0
"1159",13.02740955,-1.899998903,14.01104083,0.133230761,0,0
"1160",15.31734753,-5.038971424,16.19195048,0.36132279,0,0
"1161",17.84439278,-5.070855141,18.73948843,0.789794505,0,0
"1162",13.37543583,-5.788312912,14.58530929,1.325917125,0,0
"1163",9.203611374,-3.386407852,10.66124369,0.926223218,0,0
"1164",7.452851772,-1.587149501,10.09033826,-0.112980351,0,0
"1165",10.78582096,-2.062261581,12.34358374,-0.62245667,0,0
"1166",11.926898,-1.523082733,12.5893644,-0.619259238,0,0
"1167",10.62700081,-0.938847661,10.74080424,-0.407154977,0,0
"1168",9.259894371,-1.01009953,9.316021759,-0.369850218,0,0
"1169",9.15571022,-2.732417822,9.611994689,-0.423142731,0,0
"1170",8.978778839,-3.440146208,9.991632394,-0.551044762,0,0
"1171",8.922645569,-3.315455437,9.798500912,-0.778070986,0,0
"1172",9.208400726,-2.647544384,9.769883837,-0.765280664,0,0
"1173",10.12255001,-1.54823041,10.30647685,-0.53505677,0,0
"1174",10.20817184,-0.63947022,10.22842929,-0.264330983,0,0
"1175",9.268725395,-0.899778903,9.314577831,0.104452908,0,0
"1176",9.847272873,-1.610800266,10.07701665,0.290976703,0,0
"1177",10.43300438,-1.076411605,10.84274279,0.204642624,0,0
"1178",10.32208538,-0.40655458,11.09268433,0.040501885,0,0
"1179",9.547446251,0.801283717,10.47810115,0.073543459,0,0
"1180",9.076675415,-0.790506125,9.89533506,0.072477661,0,0
"1181",9.628427506,-2.129471779,10.35159861,0.039436091,0,0
"1182",9.221424103,-2.097588062,9.891440311,0.035172634,0,0
"1183",8.881930351,-2.267484665,9.728544445,0.058621503,0,0
"1184",8.514893532,-1.955982566,9.218944483,0.106584497,0,0
"1185",8.122110367,-0.610580266,8.705116031,0.225959897,0,0
"1186",8.92069912,-1.214274883,9.473743092,0.396495938,0,0
"1187",10.18886185,-2.124083042,10.69285655,0.505212605,0,0
"1188",9.808353424,-1.654210091,10.05601529,0.455117464,0,0
"1189",9.147926331,-2.232008457,9.452848976,0.545714974,0,0
"1190",7.629933357,-1.766326904,8.002783291,0.590480626,0,0
"1191",8.166268349,-1.310375094,8.425131994,0.666155934,0,0
"1192",10.96918964,-2.066901922,11.32707161,0.699197471,0,0
"1193",11.22306156,-2.081870794,11.80979606,0.821769774,0,0
"1194",9.315877914,-1.541644096,9.638205053,0.953935266,0,0
"1195",9.223519325,-1.599873066,9.399263848,0.919828117,0,0
"1196",9.773475647,-1.311872006,10.13315169,0.678946018,0,0
"1197",9.542206764,-1.609303474,9.940880159,0.56703198,0,0
"1198",8.488548279,-0.914598107,8.866114937,0.286713541,0,0
"1199",9.770332336,-1.605710864,10.15908764,0.017053019,0,0
"1200",11.80969143,-0.998872817,12.61838471,-0.03837109,0,0
"1201",11.27021313,-0.485290825,12.17339177,-0.081005104,0,0
"1202",9.087602615,-2.533481598,9.92153858,0.440195769,0,0
"1203",9.542805672,-3.18582511,10.19626994,0.687472642,0,0
"1204",9.545499802,-2.293829918,10.00560527,0.541451514,0,0
"1205",9.519154549,-2.165546656,10.78563479,0.019185146,0,0
"1206",9.908794403,-2.439926148,11.20180309,-0.046897735,0,0
"1207",10.5331459,-2.337688685,11.35892634,0.190787002,0,0
"1208",9.768087387,-2.530038834,10.32270447,0.622456133,0,0
"1209",10.35980701,-3.891308069,11.37992802,0.241947919,0,0
"1210",9.807904244,-3.828887701,10.87131482,-0.040502686,0,0
"1211",7.919580936,-3.93441844,9.126971306,-0.21743378,0,0
"1212",8.702004433,-4.036655903,9.958371299,-0.060753629,0,0
"1213",8.652157784,-4.368814945,10.02164406,0.011724034,0,0
"1214",9.347311974,-3.918401718,11.22047959,-0.33041361,0,0
"1215",11.01394653,-3.326532364,12.77856954,-0.316557705,0,0
"1216",12.07853222,-2.646047592,13.49107518,0.007460579,0,0
"1217",12.53523254,-4.382137299,13.67487858,0.675748646,0,0
"1218",12.22283268,-5.178182125,13.47792,1.395197392,0,0
"1219",10.86350918,-5.537285328,12.22485386,1.71282053,0,0
"1220",8.264614105,-4.53541851,9.454159212,1.800220251,0,0
"1221",7.405250549,-2.533331871,7.844345982,1.714952231,0,0
"1222",7.711214542,-2.524200916,8.172363267,1.264097929,0,0
"1223",8.340355873,-2.784060478,9.155540882,0.916630745,0,0
"1224",9.4799366,-4.127217293,11.10386175,0.664024353,0,0
"1225",9.920320511,-3.929628372,11.88696008,0.52226615,0,0
"1226",8.244854927,-3.405568123,9.583063492,0.477500528,0,0
"1227",5.441634178,-4.081113339,6.897568714,0.24301371,0,0
"1228",3.980073452,-4.15700531,5.808875482,-0.110848755,0,0
"1229",5.34703064,-3.676953793,6.575925337,-0.477501065,0,0
"1230",6.617738247,-3.433709621,7.580694333,-0.74502945,0,0
"1231",7.71765089,-2.985840797,8.384075656,-0.915565491,0,0
"1232",7.589517593,-2.814746618,8.168406814,-1.078640461,0,0
"1233",6.516398907,-3.553759813,7.475048267,-1.269427657,0,0
"1234",5.889652252,-3.584146738,6.938753307,-1.483663559,0,0
"1235",5.769153118,-2.591411114,6.364819345,-1.53056097,0,0
"1236",6.448141098,-2.772983551,7.10755015,-1.48259747,0,0
"1237",8.674461365,-3.358266354,9.646369496,-1.551877737,0,0
"1238",11.37379837,-3.550915718,12.27559433,-1.782101631,0,0
"1239",11.07876205,-2.646945715,11.61880558,-1.649936199,0,0
"1240",9.520801544,-3.454366684,10.13022281,-1.462346554,0,0
"1241",9.989327431,-3.19675231,10.51756815,-1.124471784,0,0
"1242",11.64757919,-3.119513035,12.25124057,-0.848416805,0,0
"1243",11.20060825,-2.015109539,11.88660193,-0.731173277,0,0
"1244",9.342970848,-1.672172666,9.800771519,-0.740765989,0,0
"1245",9.749526024,-3.353626013,10.42714959,-0.604337275,0,0
"1246",10.66277695,-3.319347382,11.17354152,-0.289911449,0,0
"1247",11.04837513,-3.735033035,11.76876826,0.16200915,0,0
"1248",10.44497967,-3.267854452,11.20011353,0.390100628,0,0
"1249",9.266480446,-3.732637882,10.27785447,0.115111411,0,0
"1250",11.99650288,-3.083587647,12.54532311,0.003197391,0,0
"1251",16.64613342,-5.093158722,17.44414216,0.211037934,1,0
"1252",19.47135925,-7.547604561,20.90132501,0.818572342,1,0
"1253",18.76902008,-7.662116528,20.40484418,2.028311968,1,0
"1254",10.12344837,-1.508712649,10.75377855,1.021083951,1,0
"1255",4.857698441,-1.499581575,5.300318676,0.3240183,1,0
"1256",6.13514185,-2.391576767,6.831748438,-0.58088845,1,1
"1257",12.34273338,-2.828368425,13.48854766,-0.603271484,1,0
"1258",13.99110508,-2.474803686,15.01207857,-0.533990979,1,0
"1259",12.78910446,-1.242266655,12.85271058,-0.148153514,1,0
"1260",10.77998257,-3.153791666,11.32130519,0.094860204,1,0
"1261",9.698331833,-3.375630379,10.51549803,0.061818894,1,0
"1262",6.031108379,-3.451372862,7.368224054,-0.396496475,1,0
"1263",6.385122299,-2.133812666,7.094663586,-0.538254678,1,0
"1264",6.805747509,-1.864372969,7.501866935,-0.513740003,1,0
"1265",8.586593628,-1.828747153,9.250384349,-0.34000659,1,0
"1266",10.86590385,-3.838617563,12.07193936,-0.148153514,1,0
"1267",9.281000137,-3.647165775,10.68666511,-0.25580436,1,0
"1268",8.147557259,-2.906056881,9.393099391,-0.315491915,1,0
"1269",7.379803658,-1.873054981,8.254945602,-0.251541168,1,0
"1270",7.165299892,-2.675835609,7.874212801,-0.046897735,1,0
"1271",7.594307423,-4.758155346,8.963600302,0.031975243,1,0
"1272",9.397607803,-3.844754696,10.16409853,0.028777853,1,0
"1273",9.624236107,-0.973575413,9.690674883,0.090597011,1,0
"1274",8.765023232,-0.888701916,8.834423742,0.294174105,1,0
"1275",9.799671173,-1.795366526,9.972563681,0.508409977,1,0
"1276",9.754764557,-2.290686607,10.0492326,0.588348746,1,0
"1277",9.162895203,-1.882335663,9.445639227,0.514805257,1,0
"1278",7.941735268,-0.308508456,8.320346886,0.075675055,1,0
"1279",9.593549728,-1.852697253,10.11369804,-0.103387639,1,0
"1280",9.420510292,-1.935774565,9.904238139,0,1,0
"1281",8.618477821,-1.620829463,9.062516416,0.049028795,1,0
"1282",8.001610756,-2.581531763,8.780805149,-0.062885754,1,0
"1283",11.36017609,-2.754422188,12.12431098,-0.311228454,1,0
"1284",17.57210922,-4.517456055,18.59083321,-0.643773913,5,4
"1285",16.7266674,-3.194956064,17.48960175,-0.133231297,1,0
"1286",12.81544971,-1.8507514,13.06032066,0.782333672,1,0
"1287",12.13691139,-1.75929153,12.49709988,1.286480427,1,0
"1288",11.40119076,-2.514770508,12.20612184,1.496453166,1,0
"1289",10.14859581,-4.280348778,11.53141408,1.460214138,1,0
"1290",8.448730469,-4.973258019,9.900794227,1.10315454,1,0
"1291",8.490194321,-3.169508934,9.177834753,0.702394903,1,0
"1292",9.320816994,-2.579585791,9.718021868,0.624587715,1,0
"1293",8.626111984,-2.930156708,9.120831099,0.664024353,1,0
"1294",5.880221844,-3.02880168,6.670366532,0.510541856,1,0
"1295",4.383783817,-3.166365624,5.512847114,0.105518706,1,0
"1296",4.64933157,-2.253413916,5.195810303,-0.426340133,1,0
"1297",5.318739414,-1.573228478,5.554279897,-0.764214873,1,0
"1298",6.005511284,-1.527723074,6.316422556,-0.940080166,1,0
"1299",6.898254871,-2.530038834,7.49238836,-1.087167382,1,0
"1300",7.73890686,-3.770359516,8.64769424,-1.302469015,1,0
"1301",9.360035896,-3.791016579,10.1205231,-1.536955833,1,0
"1302",11.75520515,-3.16456914,12.2195773,-1.659528613,1,0
"1303",10.75722981,-3.162922621,11.29797442,-1.494322062,1,0
"1304",8.15114975,-3.42442894,8.94988838,-1.030677438,1,0
"1305",8.224047661,-3.520379305,9.247634173,-0.641641796,1,0
"1306",10.24783993,-3.52846241,11.12138188,-0.592612982,1,0
"1307",12.1400547,-2.995720387,12.53030932,-0.668288052,1,0
"1308",12.08032894,-2.724933386,12.39587799,-0.486027956,1,0
"1309",10.8871603,-2.294428825,11.13286595,0.031975243,1,0
"1310",13.13024521,-2.692002058,13.42064372,0.014921425,1,0
"1311",17.63572693,-0.910107434,18.14542054,-0.071412131,1,0
"1312",12.28330708,0.330213308,13.23289163,0.338939726,1,0
"1313",8.873397827,1.408121824,12.12979566,0.429537267,1,0
"1314",7.59490633,-0.859961689,9.576376427,0.624587715,1,0
"1315",11.34505749,-3.449875832,12.26906923,0.901708543,1,0
"1316",11.86133385,0.019609222,11.90516253,0.038370293,1,0
"1317",9.349108696,1.620679736,9.523240824,0.027712055,1,0
"1318",8.413853645,-0.834364951,8.626940965,-0.167338654,1,0
"1319",8.802894592,-1.858235836,9.510749357,-0.283516407,1,0
"1320",9.271270752,-0.457448721,10.10231585,-0.238750532,1,0
"1321",7.689210415,-0.847687244,9.650879388,0.09805759,1,0
"1322",7.243886471,-2.267035723,8.266279862,0.262198865,1,0
"1323",6.86547327,-3.615581274,8.017738227,0.580887616,1,0
"1324",8.267158508,-0.757574618,8.369245232,0.751423955,1,0
"1325",7.195836067,-0.108374633,7.232341439,0.531858861,1,0
"1326",6.924749851,0.510438561,7.121889473,0.349598736,1,0
"1327",7.126679897,-1.70570302,8.408303616,0.584085584,1,0
"1328",7.21439743,-3.014132023,9.752530283,1.026413202,1,0
"1329",6.228996754,-3.373534679,9.285877654,0.924091578,1,0
"1330",8.990902901,-1.323397994,9.711561679,0.686406851,1,0
"1331",7.285349846,0.608185291,8.488642566,1.156447053,1,0
"1332",11.2019558,-2.875819683,12.02173998,2.1274364,1,0
"1333",18.99489975,-6.273454189,20.47697682,3.176232576,1,0
"1334",19.54919815,-6.770271301,21.38333984,2.691271067,1,0
"1335",14.76873779,-3.377726078,15.31588222,2.336342812,1,1
"1336",7.298223496,-6.712940216,9.923378946,1.88015902,1,0
"1337",6.234235764,-7.616760731,10.13472328,1.273690343,1,0
"1338",7.566615105,-4.192032814,9.863165996,0.761016667,1,0
"1339",8.214617729,-1.484014034,9.672239429,0.634180129,1,0
"1340",6.47867775,-1.787433028,7.665855392,0.56703198,1,0
"1341",5.36364603,-3.304528236,6.500377644,0.091662809,1,0
"1342",4.349056244,-3.667373657,5.727846676,-0.655498207,1,0
"1343",3.657045126,-3.063529253,4.875771877,-1.358959198,1,0
"1344",3.563639402,-2.847827911,4.571416425,-1.777837873,1,0
"1345",4.114943028,-2.2531147,4.72652376,-1.811945319,1,0
"1346",4.973557472,-1.907782793,5.58140506,-1.643540859,1,0
"1347",8.531358719,-1.788480878,9.066317892,-1.554009318,1,0
"1348",14.88115406,-1.82425642,15.56569507,-1.523099899,1,0
"1349",14.7147007,-2.34098196,16.17118903,-1.365353942,1,0
"1350",8.779093742,-4.152664661,10.11601292,-0.99550426,1,0
"1351",8.358617783,-4.828508854,9.65402522,-0.395430684,1,0
"1352",13.22275352,-6.136488915,14.69202941,-0.37944293,1,0
"1353",19.53527641,-2.763403416,19.81748231,-0.024514664,1,0
"1354",16.52773094,-0.360001385,16.57584773,0.668287516,1,0
"1355",9.414222717,0.200133815,11.06013627,0.060753096,1,0
"1356",8.005652428,0.765358448,10.39849179,-0.066083148,1,0
"1357",10.17958164,0.885109425,11.152288,0.844152808,1,0
"1358",9.800419807,0.397273868,10.13281702,0.443393141,1,0
"1359",9.66390419,-0.143551484,9.665688257,0.107650831,1,0
"1360",9.920021057,-3.124901772,10.43971457,-0.147087723,1,0
"1361",10.14784718,0.55833894,11.32464925,-0.380508721,1,0
"1362",9.675579071,-0.385448456,11.41865296,-0.482830584,1,0
"1363",9.102421761,-2.087259531,10.61802498,-0.200380236,1,0
"1364",9.207951546,-0.648152173,9.890063422,-0.190787524,1,0
"1365",9.367670059,-0.372425526,9.695910144,-0.213170067,1,0
"1366",8.676258087,-1.708097935,8.856284166,-0.193984926,1,0
"1367",8.592881203,-1.439706087,8.954016303,-0.033041574,1,1
"1368",8.535250664,-1.456022143,9.043149718,0.054358315,1,0
"1369",7.422914028,-2.065404892,8.502928734,0.450854272,1,0
"1370",8.910370827,-2.268233299,9.99080235,0.614995003,1,0
"1371",9.145381928,-2.154469729,10.06319449,0.678946018,1,0
"1372",8.95273304,-1.814227343,9.26792326,0.823901892,1,0
"1373",8.527317047,-0.924477518,8.713563751,0.904906452,1,0
"1374",8.005352974,-0.428109735,8.198428715,0.927289009,1,0
"1375",8.223000526,-0.45071274,8.630166538,0.872930706,1,0
"1376",8.436904907,-1.273551583,9.384587789,0.820703983,1,0
"1377",9.121582031,-0.876427472,10.07929832,0.750357866,1,0
"1378",8.779393196,-0.424666911,9.592320438,0.646970749,1,0
"1379",8.666527748,-0.622705102,9.60985136,0.599007487,1,0
"1380",9.486822128,-1.392404437,10.23392585,0.481763721,1,0
"1381",11.11992645,-0.807271242,11.94776419,0.39969334,1,0
"1382",10.14680004,-1.421444058,11.3888278,0.412483692,1,0
"1383",9.263486862,-1.720671892,10.47123775,0.462578565,1,0
"1384",10.42522049,-2.404599667,11.32777343,0.424208015,1,0
"1385",14.18510151,-2.474653959,15.62274105,0.370915502,1,0
"1386",13.79561234,-3.717968464,15.93510628,0.562768281,1,0
"1387",12.42985153,-4.892725468,13.99617225,1.016820431,1,0
"1388",11.40882492,-6.423741818,13.25777682,1.34723413,1,0
"1389",9.463769913,-5.12908411,10.81339503,1.3834728,1,0
"1390",8.064479828,-5.576354027,9.882792428,1.013623118,1,0
"1391",10.22059631,-4.460723877,11.45048811,1.059454441,1,0
"1392",11.64159107,-2.111209631,12.27415545,1.224661589,1,0
"1393",9.404792786,-0.671503604,9.923001443,0.998701096,1,0
"1394",7.532186508,-3.420087814,8.675883259,0.576624453,1,0
"1395",8.868757248,-4.850363731,10.53038787,0.410351843,5,4
"1396",9.569300652,-4.608616352,11.10173362,0.413549513,1,0
"1397",6.606511593,-4.291575432,8.151898272,0.166272327,1,0
"1398",4.58272028,-4.759053707,6.62059652,-0.250475347,1,0
"1399",4.058510304,-4.885989666,6.353804114,-0.458315909,1,0
"1400",4.241429806,-3.183579683,5.360197399,-0.86653614,1,0
"1401",4.595593453,-2.490520954,5.342862775,-0.928355575,1,0
"1402",4.813839436,-2.115101576,5.463871638,-1.013623595,1,0
"1403",5.482499123,-2.620450735,6.270174957,-1.411185622,1,0
"1404",5.736520767,-3.035986662,6.536770035,-1.626487255,1,0
"1405",6.298452377,-3.443439245,7.213457289,-1.68617487,1,0
"1406",9.190288544,-3.282673597,9.969250897,-1.477268457,1,0
"1407",14.11819077,-4.119283676,15.12704782,-0.885721862,1,0
"1408",15.59097862,-5.989644527,17.20004869,-0.38477245,1,0
"1409",12.96648598,-4.97475481,13.98898318,-0.020251475,1,0
"1410",8.864865303,-4.421355724,10.17088114,0.271791577,1,0
"1411",6.027814865,-4.222269535,8.329618567,0.084201962,1,0
"1412",8.869505882,-5.234913826,11.60672431,-0.279253215,1,0
"1413",16.66200066,-5.173092365,18.16835551,-0.46044749,1,0
"1414",16.97155762,-2.153721333,17.29114171,-0.600074112,1,0
"1415",14.43837547,2.034868479,14.75959698,-0.875063062,1,0
"1416",12.23435879,2.546953678,13.01247805,-1.23212266,1,1
"1417",13.55446339,-0.670156419,14.12256324,-0.399693877,1,0
"1418",10.93356323,-2.377206564,11.38655593,0.988042593,1,0
"1419",8.140821457,-0.147443384,8.271002652,1.0637182,1,0
"1420",8.179590225,2.509531498,8.56119455,-0.017053818,1,0
"1421",9.761501312,1.964215398,9.961451427,-0.606468916,1,0
"1422",10.25966454,0.264799357,10.70901804,-1.27688849,1,0
"1423",11.70984936,0.191751257,12.66894678,-1.342971444,1,0
"1424",10.94688606,-1.354533196,12.22817232,-0.87293148,1,0
"1425",9.611662865,-1.538201332,10.66624219,-0.515871584,1,0
"1426",9.616901398,-0.557141423,9.843719773,-0.236618936,1,0
"1427",8.821156502,-1.068777442,8.915975193,-0.024514664,1,0
"1428",8.509354591,-3.144361258,9.164975328,0.199313641,1,0
"1429",9.042396545,-1.528172135,9.186631765,0.416746885,1,0
"1430",9.527237892,1.037342787,9.958068291,0.265396267,1,0
"1431",9.310788155,-0.107177123,10.22256147,0.06821394,1,0
"1432",9.656569481,-1.437610507,10.78454504,-0.020251475,1,0
"1433",10.01372623,-1.992057443,10.98392179,0.141757667,1,0
"1434",9.799970627,-0.321082294,10.52482613,0.066082351,1,0
"1435",7.932155132,0.646056533,8.417445333,-0.142823994,1,0
"1436",7.745942116,0.232316896,7.871703896,-0.029844182,1,0
"1437",10.25247955,-0.09385483,10.64074474,0.473236799,1,0
"1438",9.492659569,-0.858913899,10.28411992,0.916630745,1,0
"1439",9.982292175,-1.813478828,10.33055799,1.192685723,1,0
"1440",13.00809956,-2.469115496,13.32877469,1.248109937,1,0
"1441",14.21144676,-2.540516853,14.72958202,1.410119057,1,0
"1442",12.81679726,-1.621577859,13.56751127,1.864171267,1,0
"1443",11.26482487,-1.934726715,11.79407821,2.066682816,1,0
"1444",8.449329376,-2.441273451,8.891362111,1.419711709,1,0
"1445",8.24695015,-2.811753035,8.804131613,1.060520291,1,0
"1446",7.177574158,-3.252586126,8.376066225,0.443393141,1,0
"1447",6.67372179,-3.123404741,8.487472278,0.040501885,1,1
"1448",7.367080212,-3.32877779,8.730757126,-0.263265193,1,0
"1449",7.502099514,-3.282224655,8.680824844,-0.656563997,1,0
"1450",7.495063782,-2.829116821,8.061338829,-0.949672878,1,0
"1451",7.327712059,-3.003653765,7.928822016,-1.113813639,1,0
"1452",6.968758583,-2.367476702,7.361072126,-1.425041795,1,0
"1453",8.003556252,-1.797162771,8.230802452,-1.387737036,1,0
"1454",9.840386391,-2.285297632,10.19471195,-1.27688849,1,0
"1455",10.96799183,-2.634820938,11.56959835,-1.008294344,1,0
"1456",10.41174889,-2.76939106,11.02351363,-0.794058502,1,0
"1457",9.685608864,-2.577340365,10.17854449,-0.618193448,1,0
"1458",11.7156868,-2.746638298,12.25603103,0.071411334,1,0
"1459",14.97336292,-4.122427464,15.98082633,0.576624453,1,0
"1460",14.26743031,-4.177213669,15.72741291,0.542517364,1,0
"1461",11.95818329,-2.484832764,13.24295029,-0.06501735,1,0
"1462",6.443350792,-1.453926563,7.369301874,-0.354928255,1,0
"1463",7.833360672,-3.176244974,8.5208301,0.133230761,1,0
"1464",8.458909988,-3.092868328,9.016763123,0.216367453,1,0
"1465",9.135353088,-2.231110334,9.410020852,0.004263188,1,0
"1466",12.04215813,-0.879870296,12.14830687,-0.364520967,1,0
"1467",10.72729206,-0.029039612,11.07196709,-0.303767353,1,0
"1468",9.528136253,-0.105231173,9.888967559,-0.179063231,1,0
"1469",8.567584038,-0.48559022,9.020317879,0.042633481,1,0
"1470",9.395811081,-0.89109695,9.767839593,-0.05649044,1,0
"1471",10.346035,-0.968486011,10.68600971,-0.098058388,1,0
"1472",10.79076004,-0.894539774,11.09393878,-0.205709487,1,0
"1473",9.144483566,-0.8437953,9.381295494,-0.215302199,1,0
"1474",8.804540634,-0.640967131,9.144808655,-0.177997172,1,0
"1475",9.387877464,-0.483793944,9.909861391,-0.19291912,1,0
"1476",10.4633913,-0.539478123,11.03275866,-0.149219319,1,0
"1477",9.592802048,-1.032702446,9.956123224,-0.042634279,1,0
"1478",9.438173294,-1.769919395,9.692154093,-0.005329518,1,0
"1479",10.59077644,-1.756597161,10.79125159,-0.090597808,1,0
"1480",10.29050064,-0.382155299,10.47586519,-0.212104276,1,0
"1481",9.775422096,0.902772665,10.26484573,-0.29843837,1,0
"1482",9.080566406,-0.299527139,9.617465154,-0.265396774,1,0
"1483",9.365124703,-1.376687169,9.906707079,0.010658237,1,0
"1484",9.444459915,-2.136357307,9.839485916,0.228091493,1,0
"1485",10.06462097,-1.984722734,10.36025321,0.369849682,1,0
"1486",10.30127811,-0.78242296,10.50887396,0.32188642,1,0
"1487",9.761949539,-0.168100432,10.13303424,0.088465154,1,0
"1488",9.184301376,-0.105380863,9.847681042,-0.138560817,1,0
"1489",9.549541473,-0.420176238,10.52564378,-0.148153514,1,0
"1490",10.21191406,-1.441502333,11.30117315,0.042633481,1,0
"1491",10.07644558,-0.578696609,10.69902229,0.107650831,1,0
"1492",9.409283638,-0.695753157,9.740984147,-0.058622036,1,0
"1493",9.406738281,-1.568737745,9.630519721,-0.102321848,1,0
"1494",8.943152428,-2.253264427,9.563025367,-0.111914553,1,0
"1495",8.944050789,-2.160906315,9.774608758,-0.071412131,1,0
"1496",9.679471016,-1.57936573,10.32552445,0.006394783,1,0
"1497",9.954000473,-0.907263339,10.3206751,0.019185146,1,0
"1498",10.68972015,-0.408650219,10.84880471,0.115111411,1,0
"1499",9.19238472,-1.328337669,9.395169547,0.142823458,1,0
"1500",9.799072266,-1.636846185,9.965381591,0.08526776,1,0
"1501",9.491911888,-0.638272703,9.838204508,0.107650831,1,0
"1502",8.586295128,-0.139809266,9.676676161,-0.088465683,1,0
"1503",8.156837463,0.632883906,9.41806839,-0.277121633,5,4
"1504",8.569379807,-0.189954981,9.399678618,-0.319755107,1,0
"1505",9.737401009,-1.370849252,10.3076745,-0.202511832,1,0
"1506",9.729167938,-2.011217594,10.21452221,0.054358315,1,0
"1507",9.013505936,-2.72987318,9.863484682,0.1801285,1,0
"1508",9.279652596,-2.414778471,10.27048771,0.173733175,1,0
"1509",9.248966217,-1.193168759,9.926395762,-0.026646258,1,0
"1510",9.166338921,1.574575663,10.24003601,-0.312294245,1,0
"1511",8.903036118,1.521436214,10.64687868,-0.347467154,1,0
"1512",9.138496399,-1.294059038,10.29134608,0.087399356,1,0
"1513",9.860894203,-2.572101355,10.28944103,0.512673676,1,0
"1514",9.800719261,-2.438279629,10.10491647,0.378376603,1,0
"1515",8.831484795,-1.383273482,8.985006347,0.093794406,1,0
"1516",9.153165817,-0.126187593,9.519620611,0.376244754,1,0
"1517",10.08512783,0.97686857,10.90106515,0.742897332,1,0
"1518",9.136101723,1.7098943,10.72546888,0.724777699,1,0
"1519",8.592282295,0.034278717,9.908613723,0.833494604,1,0
"1520",8.642876625,-0.688119054,9.164800928,0.972054839,1,0
"1521",10.61562443,-1.462608457,10.8180764,0.960330546,1,0
"1522",12.04934311,-1.517244816,12.19352753,0.930486918,1,0
"1523",14.060112,-0.776435375,14.49466791,0.686406851,1,0
"1524",7.404502392,-1.663341045,8.127962482,0.819638133,1,0
"1525",5.812113762,-2.083367586,6.828607677,0.749292076,1,0
"1526",6.483767033,-3.424129486,8.584210792,0.565966189,1,0
"1527",10.24679184,-2.948269129,11.61800642,0.551043987,1,0
"1528",13.68693829,-1.357377291,14.45050916,0.781267881,1,0
"1529",12.74584484,-1.822011113,13.49784947,0.762082458,1,0
"1530",11.19252491,-4.369114399,12.38285994,0.889984489,1,0
"1531",10.61218166,-4.513114929,12.25647922,1.126603127,1,0
"1532",10.74600315,-2.688858509,11.64483001,1.312060952,1,0
"1533",8.887618065,-2.121238947,9.183692195,1.247044087,1,0
"1534",7.066056252,-2.598446608,7.529051147,1.021083951,1,0
"1535",6.690786362,-2.855462074,7.274639747,0.93475008,1,0
"1536",7.478298664,-2.955753565,8.196717643,0.709855735,1,0
"1537",8.574918747,-3.436254263,9.754142468,0.478566319,1,0
"1538",7.986042976,-3.03823185,9.071009357,0.111914016,1,0
"1539",6.21298027,-3.062780857,7.17250394,-0.245145842,1,1
"1540",6.098318577,-3.103196859,6.879261153,-0.612863958,1,0
"1541",6.360273838,-3.098107338,7.108171097,-0.795124292,1,0
"1542",6.916517258,-2.780168533,7.466146231,-1.136196613,1,0
"1543",7.321724415,-2.664010048,7.822398758,-1.16284287,1,0
"1544",7.60583353,-3.40886116,8.452296867,-1.19694972,1,0
"1545",9.680369377,-3.533402205,10.65300695,-1.383473516,1,0
"1546",11.5652504,-3.173101425,12.34113402,-1.380276203,1,0
"1547",12.58418083,-2.201920986,13.16119219,-1.135130644,1,0
"1548",12.26863766,-2.387684822,12.97615917,-0.594744563,1,0
"1549",11.79397392,-3.122207403,12.71594777,-0.110848755,1,0
"1550",13.25718117,-4.277504921,14.4626721,0.518002689,1,0
"1551",6.634203911,-0.447419584,7.487103628,0.337873906,1,0
"1552",8.093519211,-1.25813365,8.701995393,0.370915502,1,0
"1553",8.701255798,-2.099534035,9.620449427,0.553175569,1,0
"1554",7.944129944,-4.124971867,9.25528463,0.946474373,1,0
"1555",9.004375458,-4.005370617,10.10881727,0.86014086,1,0
"1556",9.637858391,-3.176394701,10.64835188,0.702394903,1,0
"1557",8.098459244,-1.191522241,9.086247341,0.997635305,1,0
"1558",7.562423706,-2.143542528,8.408770896,1.076508284,1,0
"1559",8.045319557,-2.090702295,8.80192635,1.014688849,1,0
"1560",8.230484963,-1.926942945,9.010550778,1.00935936,1,0
"1561",7.958350658,-2.678080797,8.936168652,1.142590642,1,0
"1562",8.794062614,-3.799099684,10.00320078,1.274756193,1,0
"1563",9.805509567,-3.624263287,10.99812752,1.350431681,1,0
"1564",8.882827759,-2.630479813,10.24060931,1.447423816,1,0
"1565",6.41012001,-2.568808079,8.364186152,1.611564755,1,0
"1566",4.647385597,-2.752925158,6.67233868,1.789561987,1,0
"1567",3.685336351,-3.464545488,5.739130112,1.869500756,1,0
"1568",3.744912386,-4.740791321,6.313191895,1.847117662,1,0
"1569",6.597680092,-8.600215912,10.84625831,1.760784149,1,0
"1570",10.69001961,-10.26131153,14.82034648,1.367485285,1,0
"1571",14.78984451,-8.613088608,17.28401523,0.763148248,1,0
"1572",15.33995056,-11.50702095,19.47460849,0.664024353,1,0
"1573",16.04767799,-12.12044525,20.88621576,0.39969334,1,0
"1574",13.31346416,-11.58381176,18.85642971,-0.050095126,1,0
"1575",12.71126652,-11.44400215,17.46080817,-0.272857904,1,0
"1576",13.22889042,-9.61315918,16.65127117,-0.382640332,1,0
"1577",12.86110497,-7.122189522,14.87995738,-0.545715809,1,0
"1578",8.783884049,-7.455097199,11.52504292,-0.687473476,1,0
"1579",5.509891987,-6.838079929,8.782593105,-0.667222261,1,0
"1580",8.418045044,-8.215366364,11.76832288,-0.15028511,1,0
"1581",9.06724453,-6.7853899,11.34008797,0.199313641,1,0
"1582",7.425458908,-4.850663185,8.886672819,0.205708951,1,0
"1583",5.902675152,-5.180427074,7.890171997,0.084201962,1,0
"1584",4.904401302,-5.305866242,7.450529082,-0.146021918,1,0
"1585",3.824397087,-4.913532257,6.840359061,-0.445525557,1,0
"1586",4.142036438,-4.483177185,6.314026299,-0.758885324,1,0
"1587",4.559967518,-4.112098694,6.199472885,-1.123406053,1,0
"1588",4.170776844,-3.805835724,5.657796575,-1.459149122,1,0
"1589",2.838996172,-3.611988783,4.62225384,-1.770377398,1,0
"1590",2.639910221,-3.279679775,4.379534742,-2.054959059,1,0
"1591",3.185525656,-3.121758223,4.858962848,-2.22229743,1,0
"1592",4.292473793,-3.170107842,5.813890188,-2.509011269,1,0
"1593",6.241121292,-2.915337563,7.132396941,-2.940680504,1,0
"1594",8.792565346,-2.211800575,9.118565629,-3.185825825,1,0
"1595",11.79532146,-0.856818259,11.87512271,-3.070713997,1,0
"1596",14.28629112,-0.030087434,14.47039403,-2.416282415,1,0
"1597",16.89850998,-4.548740864,17.92896411,-1.744796872,1,0
"1598",18.55137253,-6.171815872,19.91474903,-1.367486119,1,0
"1599",19.54006577,-4.754413128,20.13135196,-0.419945091,1,0
"1600",18.00246429,-3.948189735,18.70848594,0.586217165,1,0
"1601",4.54065752,1.157542825,4.808528302,0.395430148,1,0
"1602",3.851490736,3.823798418,8.445951171,-0.110848755,1,0
"1603",9.0060215,3.824696541,11.4267768,-0.035173167,1,0
"1604",14.24812126,1.407523036,16.7624074,0.104452908,1,0
"1605",10.68612766,-0.705632627,12.17172018,-0.338940501,1,0
"1606",8.778644562,-1.399739265,8.970292547,-0.602205694,1,0
"1607",9.216783524,-0.843645632,9.624323041,-0.545715809,1,0
"1608",11.99096489,0.448018342,12.04943266,-0.068214744,1,0
"1609",11.88064384,-0.128283233,12.05193661,-0.019185679,1,0
"1610",10.6566391,-1.541494489,11.08559133,-0.050095126,1,0
"1611",9.033714294,0.930764437,9.295308265,0.011724034,1,0
"1612",8.985664368,1.563947797,9.494699706,-0.138560817,1,0
"1613",9.015602112,1.036893725,9.584417221,-0.212104276,1,0
"1614",7.028783798,0.431103528,7.725719688,-0.253672749,1,0
"1615",7.524851799,-1.520837426,8.400288223,-0.272857904,1,1
"1616",8.266709328,-2.255359888,9.238815557,-0.181194827,1,0
"1617",11.58590698,-1.802252173,12.01567262,0.130033374,1,0
"1618",10.95287323,-1.570833445,11.1274456,0.214235336,1,0
"1619",6.31387043,1.179397464,7.433640705,0.415681094,1,0
"1620",4.792733669,0.430804133,5.786413578,0.175864771,1,0
"1621",12.47445965,-0.444725186,13.11738758,-0.17479977,1,0
"1622",19.47180748,0.308957517,20.8052581,-0.200380236,1,0
"1623",15.83182716,-0.697998524,17.75085017,-0.011724833,1,0
"1624",14.17462349,-4.330644608,14.97869937,1.148985982,1,0
"1625",12.35830116,-5.441783905,13.52166253,2.57296133,1,0
"1626",9.837692261,-6.849157333,12.05707709,2.935350418,1,0
"1627",8.813672066,-2.50998044,9.597869684,2.815975428,1,0
"1628",9.096134186,-0.702938259,9.404651595,2.504747152,1,0
"1629",10.44228554,-2.277663469,10.73770645,2.065617085,1,0
"1630",13.09506893,-5.683830261,14.6565946,1.726676703,1,0
"1631",12.7206974,-4.019741058,14.6818151,0.834560394,1,0
"1632",9.920021057,-3.790118456,12.05961677,0.177996367,1,0
"1633",6.905889034,-2.622396708,8.097986946,0.452985853,5,4
"1634",3.408561945,-3.221301317,4.693244161,0.27605477,1,0
"1635",0.858913899,-4.442012787,5.221492937,-0.286714047,1,0
"1636",1.442550182,-4.214785099,4.942788684,-0.773807287,1,0
"1637",2.996618509,-2.798879623,4.10056396,-1.20654273,1,0
"1638",3.799548864,-2.148033142,4.448092217,-1.557207227,1,0
"1639",5.215903282,-2.475102902,5.826024554,-1.944110751,1,0
"1640",7.53353405,-2.615960121,8.149670048,-2.441862822,1,0
"1641",9.341324806,-2.4553442,9.721851504,-2.725378752,1,0
"1642",10.29918289,-2.872825861,10.84655022,-2.685942411,1,0
"1643",12.0806284,-4.08470583,13.28591141,-2.079473734,1,0
"1644",15.03039455,-7.302114964,17.76693305,-0.959265292,1,0
"1645",15.68857574,-6.962621212,17.74894432,-0.279253215,1,0
"1646",19.49979973,-1.798809409,19.64490836,-0.182260618,1,0
"1647",19.54380798,-0.880918145,19.83433047,0.034106839,1,0
"1648",7.038662911,1.667083263,7.354617644,0.726909578,1,0
"1649",-0.603694618,1.15724349,2.509923694,0.796189845,1,0
"1650",10.34079647,0.650547206,11.65595349,-0.381574512,1,0
"1651",16.59045029,2.299817562,17.93499547,-0.820704758,1,0
"1652",13.30448341,-0.823737025,13.74108653,-1.0829041,1,0
"1653",10.30711651,0.705333233,10.54383275,-1.547614574,1,0
"1654",7.841892719,-0.59216857,8.125658684,-1.549746156,1,0
"1655",8.008196831,-1.625469804,8.370146754,-1.425041795,1,0
"1656",10.58134556,-3.907773733,11.9261299,-1.431437135,1,0
"1657",8.341403961,-3.13538003,9.220065783,-1.097825527,1,1
"1658",7.968828678,-1.112935662,8.073560122,-0.845219433,1,0
"1659",8.829239845,-1.830693007,9.147419183,-0.410352379,1,0
"1660",10.5910759,-3.865860939,11.93174725,-0.413550288,1,0
"1661",10.16566086,0.602796495,11.43564545,-0.315491915,1,0
"1662",9.396859169,0.996926904,10.52437342,-0.30483368,1,0
"1663",8.826694489,1.150657177,9.64849641,-0.301635742,1,0
"1664",9.638606072,-1.285526753,10.43404455,-0.371981829,1,0
"1665",9.759554863,-1.894011378,10.54877876,-0.316557705,1,0
"1666",8.48121357,-0.879720628,8.751073717,0.393298566,1,0
"1667",7.152426243,0.003592529,7.243301981,0.452985853,1,0
"1668",7.206613541,-0.961600363,7.379871376,0.456183523,1,0
"1669",12.15307713,-1.531914353,12.43587617,0.819638133,1,0
"1670",12.68028164,0.216300204,13.61666363,1.481531143,1,0
"1671",11.51719952,-0.968935072,13.59513227,1.805549741,1,0
"1672",10.95571709,-2.239193678,11.67909567,2.711521864,1,0
"1673",11.29206848,-2.67897892,11.61733789,2.810646057,1,0
"1674",12.65243912,-2.153272152,13.26244418,2.193519115,1,0
"1675",10.32792282,-0.149838403,11.01751009,1.380275369,1,0
"1676",8.672066689,-1.443747759,8.930106139,1.005096197,1,0
"1677",9.69039917,-3.225043535,10.31968781,0.632048547,1,0
"1678",9.13939476,-3.792064428,10.59628365,0.132164955,1,0
"1679",7.510332108,-2.44711113,8.562436737,-0.269660503,1,0
"1680",6.137836456,-1.903890848,6.463828163,-0.657629788,1,1
"1681",6.649621964,-1.760488987,6.887962744,-1.695767522,1,0
"1682",6.899602413,-1.668729901,7.115492785,-1.695767522,1,0
"1683",8.191864967,-1.702858925,8.432151173,-2.057090759,1,0
"1684",9.655072212,-1.610650659,9.898561207,-2.157280922,1,0
"1685",9.270222664,-2.664010048,9.707754312,-2.140227079,1,0
"1686",8.230784416,-3.587290287,9.09372567,-1.991008043,1,0
"1687",7.597002029,-3.623814344,8.437923619,-1.672318935,1,0
"1688",8.231082916,-3.064128161,8.785549645,-1.234254837,1,0
"1689",9.726773262,-2.539319515,10.09385998,-0.905972779,1,0
"1690",11.29640865,-1.792073369,11.51823638,-0.683210254,1,0
"1691",10.86425781,-2.744991779,11.21613623,-0.344269753,1,0
"1692",10.28017235,-3.842509508,11.02783911,-0.026646258,1,0
"1693",11.02876568,-3.45616293,11.61025887,-0.026646258,1,0
"1694",11.16947269,-2.919828177,11.5449151,-0.079938777,1,0
"1695",11.9899168,-2.695893765,12.32727032,-0.397562265,5,4
"1696",19.40729141,1.138233066,19.7874,-0.565966725,1,0
"1697",19.12228584,-3.304079056,19.50114711,1.296073437,1,0
"1698",7.927814007,-3.537593603,9.037773548,1.703227878,1,0
"1699",4.593048573,-1.896556139,5.762404951,0.433800697,1,0
"1700",8.31086731,-0.627046049,8.560146927,-0.327216208,1,0
"1701",9.550439835,1.334325314,9.71901494,-0.965660632,1,0
"1702",9.586963654,1.396595717,9.823494553,-0.79086113,1,0
"1703",8.624764442,1.489402771,9.426183522,-0.585151911,1,0
"1704",10.83776283,-0.444425821,11.53812689,-0.349599272,1,0
"1705",12.26504517,-2.033970356,12.90336728,-0.042634279,1,0
"1706",12.12553501,-2.038161516,12.70852077,-0.033041574,1,0
"1707",9.392368317,-1.158890128,9.568331667,-0.014922224,1,0
"1708",8.657995224,-0.70129168,8.73372772,0.06821394,1,0
"1709",8.18033886,0.185015261,8.200562286,0.284581393,1,0
"1710",8.341254234,-3.316653013,9.145765115,0.207840547,1,0
"1711",9.678873062,-0.895288229,10.27792574,0.014921425,1,0
"1712",9.163194656,2.844684362,10.57820253,-0.381574512,1,0
"1713",8.954977989,-0.566721499,9.700289252,-0.176931366,1,0
"1714",8.546177864,-1.973795414,9.041600615,-0.009593239,1,0
"1715",7.857909203,-3.267554998,8.650752887,0.120440662,1,0
"1716",7.65837431,-4.003424645,8.750857066,0.396495938,1,0
"1717",8.736432076,-2.218386889,9.23471993,0.518002689,1,0
"1718",8.980424881,-0.624052286,9.278891318,0.458315373,1,0
"1719",6.534511566,0.26824218,7.079015276,0.234486803,1,0
"1720",5.120701313,-0.677491128,5.829716606,-0.165207073,1,0
"1721",6.252797127,-1.577719092,6.831293344,-0.199314445,1,0
"1722",14.08331394,-2.646496534,14.6475557,0.170535788,1,0
"1723",11.58216476,-0.908460856,11.97416003,0.250474572,1,0
"1724",10.06207561,-0.515527964,10.43507476,0.211037934,1,0
"1725",6.925199032,-1.145717502,7.18442609,0.214235336,1,0
"1726",7.78156805,-1.072070599,7.896581475,0.202511028,1,0
"1727",8.865464211,-1.013392687,9.019572275,0.216367453,1,0
"1728",10.69960022,-2.123484135,11.25651599,-0.212104276,1,0
"1729",9.423953056,-2.271975517,10.14778907,-0.368784428,1,0
"1730",8.803642273,-1.902992725,9.577636706,-0.212104276,1,0
"1731",12.04859447,-4.053570747,13.40315036,0.345335037,1,0
"1732",18.26202393,-3.641627312,19.32476319,0.252606154,1,0
"1733",19.26119614,-2.729424238,19.97712467,0.235552609,1,0
"1734",11.97943878,-3.170706511,12.54756697,1.154315233,1,0
"1735",11.58650589,-4.866380215,12.80249764,1.920661092,1,0
"1736",10.65140057,-5.116809368,12.24087184,2.147687435,1,0
"1737",9.550439835,-3.249592543,10.7075311,1.826866508,1,0
"1738",10.06656647,-0.783321083,10.46461592,1.297139168,1,0
"1739",9.785750389,-1.350341916,10.08582214,1.073310614,1,0
"1740",10.58254337,-1.949246526,10.83461691,0.832428515,1,0
"1741",10.71127605,-1.777254224,11.30439358,0.607533872,1,0
"1742",10.15533161,-1.961820364,10.96832988,0.532924652,1,0
"1743",5.54656601,-2.76789403,6.878458159,0.157745421,1,0
"1744",4.393214226,-2.785258055,5.516216128,-0.419945091,1,1
"1745",4.183051109,-2.614762545,5.117695511,-0.69706589,1,0
"1746",2.836002588,-2.28230381,3.650240663,-1.234254837,1,0
"1747",2.937191963,-2.268981695,3.735126244,-1.355761528,1,0
"1748",3.71093297,-1.317709804,3.955316351,-1.671253204,1,0
"1749",5.655539036,-0.30102402,5.777233481,-1.860974312,1,0
"1750",9.675130844,0.344433755,9.743288126,-1.853513479,1,0
"1751",12.63567352,-1.394799471,12.93374476,-1.787430883,1,0
"1752",13.01229095,-3.455414534,14.27297032,-2.172202826,1,0
"1753",13.88273048,-2.232607365,14.60675789,-1.992073774,1,0
"1754",13.1923666,-3.39015007,13.643343,-0.859075606,1,0
"1755",11.81268501,-5.112019539,12.90425298,-0.203577623,1,0
"1756",11.1112442,-4.957241535,12.26765695,-0.208906874,1,0
"1757",12.57235527,-1.835932136,12.75934154,-0.419945091,1,0
"1758",16.93144035,-1.251397729,17.0685166,-0.515871584,1,0
"1759",19.53003693,-3.407963038,19.83271716,0.764214039,1,0
"1760",14.80122089,-6.082900524,16.17740131,2.472771406,1,0
"1761",2.946622372,-1.965562582,5.434542674,1.09782505,1,0
"1762",1.878593445,-0.8437953,4.100874663,-0.438064963,1,0
"1763",7.321574688,0.869691491,8.757822954,-1.258768916,1,0
"1764",11.92704773,1.26172626,13.23598848,-1.428239226,1,0
"1765",12.44347382,1.307381272,13.27817864,-0.862272978,1,0
"1766",11.03759766,-0.854123831,11.29188201,-0.66509068,1,0
"1767",9.632019997,-2.586770773,10.21086428,-0.572362065,1,0
"1768",10.90317631,-2.041754246,11.50653023,-0.594744563,1,0
"1769",10.23272133,-0.88795352,10.81704387,-0.605403066,1,0
"1770",8.927734375,0.214953005,9.109241831,-0.471105993,1,0
"1771",7.973917961,0.15103592,7.976470917,-0.233421549,1,0
"1772",7.908055306,-1.641336799,8.098128736,0.063950755,1,0
"1773",10.08093643,-2.680625677,10.76030255,0.151350111,1,0
"1774",10.80093956,-1.253044248,11.76448757,-0.111914553,1,0
"1775",7.692952633,-0.291443944,8.427022575,-0.103387639,1,0
"1776",6.441105843,-0.496367812,6.8926866,0.116177209,1,0
"1777",5.285808086,-2.038910151,5.734508378,0.23128888,1,0
"1778",5.729186058,-2.68002677,6.410025029,0.119374864,1,0
"1779",8.601712227,-2.084265709,9.011571439,-0.140692398,1,0
"1780",10.55934143,-0.610580266,10.82955945,-0.062885754,1,1
"1781",7.37142086,0.014819183,7.973639451,0.239815787,1,0
"1782",6.124364376,-0.32856673,6.531050246,0.067148142,1,0
"1783",12.37970638,-0.480051726,13.84561041,-0.169470251,1,0
"1784",13.40193081,-1.205293536,16.16350176,-0.040502686,1,0
"1785",8.268505096,-0.238753513,10.50660498,0.076740854,1,0
"1786",12.59929943,0.13726455,13.59037876,0.21849905,1,0
"1787",16.94835663,0.300275564,17.7677034,0.052226186,1,0
"1788",19.05941582,-1.691183209,19.14419291,-0.299504161,1,0
"1789",15.11736298,-4.166735172,17.64615741,1.026413202,1,0
"1790",11.21303272,-3.66153574,11.83683023,1.558272243,1,0
"1791",11.57408142,-3.972888231,12.35282066,1.473004222,1,0
"1792",11.95608711,-3.469335556,12.67333314,1.46980691,1,0
"1793",13.62376881,-1.095272422,13.85944271,1.612630606,1,0
"1794",13.24490738,1.035546541,13.33246387,1.286480427,1,0
"1795",11.20105743,1.325793028,11.27970491,1.17882967,1,0
"1796",10.42941189,0.352966011,10.43716119,1.306731939,1,0
"1797",6.447542191,-3.774700403,7.501755573,1.282217264,5,4
"1798",4.256698132,-2.521207094,4.992924643,0.920894206,1,0
"1799",2.136656761,-1.488205314,2.604990765,0.597941458,1,0
"1800",1.921554089,-1.111738086,2.220472715,0.151350111,1,0
"1801",4.012106895,-2.09609127,4.698886317,-0.367718637,1,0
"1802",5.465135098,-2.198627949,5.899777373,-1.039204121,1,0
"1803",6.956483841,-2.937790871,7.570356339,-1.68617487,1,0
"1804",9.764944077,-2.089205504,10.0705341,-1.945176601,1,0
"1805",11.78633976,-2.293680191,12.89133639,-1.716019034,1,0
"1806",12.47176456,-1.84715879,14.340529,-1.142591476,1,0
"1807",9.606423378,-4.169579506,10.93406998,-0.569164157,1,0
"1808",10.55784512,-6.049969196,12.27792849,0.022382537,1,0
"1809",10.15772724,-5.15303421,11.39101548,0.326149881,1,0
"1810",16.30080223,-0.960851908,16.69523299,-0.711988151,1,0
"1811",19.52869034,3.722758532,21.36638053,-0.494554877,1,0
"1812",17.48214531,-3.506608009,17.84139652,1.889751673,1,0
"1813",9.006320953,2.244732142,14.03428267,1.649935365,1,0
"1814",5.534440994,0.130678251,10.09952194,1.566799164,1,0
"1815",8.663683891,1.063238978,9.746802955,0.670419395,1,0
"1816",8.881331444,0.897383869,9.004835737,-0.272857904,1,0
"1817",6.739884377,2.163600683,7.088984969,-1.187357068,1,0
"1818",11.8195715,2.743345261,12.17541217,-1.376012445,1,0
"1819",11.68949127,1.991608381,13.32194134,-1.274756908,1,0
"1820",9.938282967,-1.956132174,12.71139366,-0.912368119,1,0
"1821",9.126521111,-2.558479548,10.6084455,-0.479632646,1,0
"1822",8.520281792,-2.271226883,8.954222926,-0.03837109,1,0
"1823",9.184900284,-1.542093158,9.903474341,0.369849682,1,0
"1824",8.722211838,-1.430425406,9.140539446,0.423142195,1,0
"1825",10.23361874,-2.437680721,10.56862846,0.222762242,1,0
"1826",7.95730257,2.62434268,9.98352563,-0.472171813,1,0
"1827",5.932313919,0.412691802,8.96493013,-0.34000659,1,0
"1828",5.794150829,-1.361868024,8.710253879,0.125770181,1,0
"1829",9.953102112,-3.356619835,11.42618589,0.304832876,1,1
"1830",13.55281639,-0.654888153,13.76085498,0.303766817,1,0
"1831",8.076305389,-0.431253195,8.207812556,0.540385723,1,0
"1832",4.675976276,-0.991089046,4.983206585,1.128734708,1,0
"1833",5.226082325,-2.811154127,6.019587334,1.514572501,1,0
"1834",12.67983246,-1.290167093,12.95414746,1.522033572,1,0
"1835",19.51267242,1.833686829,20.82977476,1.530560255,1,0
"1836",14.07253647,-0.974024534,14.61999113,2.277720928,1,0
"1837",12.46502876,-5.844296932,13.88457427,2.789329052,1,0
"1838",12.44212627,-5.55749321,13.74309686,2.658229351,1,0
"1839",11.53845596,-3.269500971,12.04566785,1.656330705,1,0
"1840",8.745862961,-1.485211492,8.907136144,1.465543151,1,0
"1841",8.770261765,-2.126927137,9.024935194,1.412251115,1,0
"1842",8.401129723,-1.711840153,8.857720545,1.05412519,1,0
"1843",7.396568775,-1.584754467,8.051182574,0.81537497,1,0
"1844",6.927893162,-2.762206078,7.776372277,0.350664556,1,0
"1845",6.637197971,-3.106040955,7.520133144,0.034106839,1,0
"1846",5.490881443,-1.622775435,5.779278393,-0.762083232,1,0
"1847",5.447920799,-1.850002885,5.809905755,-1.028545857,1,0
"1848",5.457201481,-2.173779488,5.925992073,-1.124471784,1,0
"1849",6.401438236,-3.452270985,7.331015596,-1.417580724,1,0
"1850",8.372389793,-3.185226202,9.08222614,-1.603038669,1,0
"1851",8.967402458,-2.325414181,9.302998246,-1.559338927,1,0
"1852",9.218280792,-2.789000273,9.643595382,-1.383473516,1,0
"1853",9.844727516,-3.772155762,10.56578708,-1.121274471,1,0
"1854",10.52596092,-4.283492565,11.46288979,-0.9144997,1,0
"1855",12.09275341,-5.732179642,13.42145151,-0.274989486,1,0
"1856",15.25941753,-5.167703629,16.11124466,0.053291984,1,0
"1857",15.82209778,-5.063969612,16.61377492,0.182260081,1,0
"1858",17.80053329,-2.84633112,18.02826929,0.543583155,1,0
"1859",12.0033884,-0.124091953,12.00741221,0.611797631,1,0
"1860",9.767638207,1.122515678,9.97083684,0.483895838,1,0
"1861",7.846084118,0.759670258,8.846013834,0.374112874,1,0
"1862",9.104067802,1.250948668,10.08315077,0.057555705,1,0
"1863",8.803343773,1.432970166,9.409430185,-0.332545728,1,0
"1864",8.616980553,1.998344421,9.207900462,-0.773807287,1,0
"1865",9.635762215,1.579665065,10.4616008,-1.105286717,1,0
"1866",9.874964714,0.098495178,11.04118682,-1.240649581,1,0
"1867",10.62340832,-1.433868289,11.72817004,-0.935816407,1,0
"1868",11.2723093,-2.379152536,12.3307753,-0.608600736,1,0
"1869",10.52745819,-1.986219645,11.38240699,-0.38477245,1,0
"1870",8.768915176,-2.255958796,9.316515575,0.172667384,1,0
"1871",8.575218201,-2.311792612,8.892596356,0.556373477,1,0
"1872",8.67835331,-0.476159811,8.719305643,0.493488282,1,0
"1873",9.024433136,1.909429312,9.480586243,0.091662809,1,0
"1874",8.940308571,-0.054337006,9.564999322,-0.029844182,1,0
"1875",8.792266846,-1.663041711,9.90198124,0.107650831,1,0
"1876",9.02518177,-1.898651719,9.592664825,0.463644356,1,0
"1877",7.962242603,-0.96594131,8.226594496,0.666155934,1,0
"1878",8.67880249,-0.350121915,8.76747218,0.758884788,1,0
"1879",11.60821056,-0.282462627,11.70426188,0.658694804,1,0
"1880",9.771230698,-0.281564474,10.4603832,0.354927748,1,0
"1881",8.363857269,0.069006503,9.222062683,0.419944286,1,0
"1882",7.054380417,-1.090482354,7.989141486,0.865469813,1,0
"1883",9.081165314,-1.88562882,10.25485524,1.549745679,1,0
"1884",16.52084541,-4.970414162,17.46860151,1.8428545,1,0
"1885",19.53243256,-3.332370281,19.8649785,1.772508144,1,0
"1886",14.58896255,-0.390537858,14.63745578,1.980348945,1,0
"1887",10.20188522,-0.148042142,10.43839319,2.170070171,1,0
"1888",8.667575836,-4.10910511,9.625045182,1.742664218,1,0
"1889",8.111481667,-5.08911705,10.41993634,0.948606253,1,0
"1890",7.975265503,-3.977229357,11.71446406,0.09805759,1,1
"1891",8.044121742,-1.240171075,11.59849233,-0.368784428,1,0
"1892",7.269033909,-1.158590674,8.99884704,-0.69706589,1,0
"1893",5.688470841,-2.17677331,6.645279561,-1.310995698,1,0
"1894",5.181025982,-2.035167933,5.705868748,-1.420778036,1,0
"1895",5.298681259,-2.671644211,5.936167357,-1.435700297,1,0
"1896",4.871768951,-3.215762854,5.977502607,-1.44955647,1,0
"1897",5.432951927,-3.290158033,6.377204065,-1.725611448,1,0
"1898",8.067173958,-2.252515793,8.42616924,-1.596643686,1,0
"1899",10.28750706,-2.351909161,10.91407089,-0.90703857,1,0
"1900",12.31159782,-2.274220705,13.1159282,-0.638444424,1,0
"1901",15.0586853,-2.990630865,15.81351368,-0.435932845,1,0
"1902",19.24996948,-1.900447965,19.51317836,0.492422491,1,0
"1903",11.05930233,-3.046764135,11.47528206,1.094627619,1,0
"1904",6.724765778,-4.030817986,7.914416773,0.831362724,1,0
"1905",5.821843624,-3.634442091,7.613711146,0.478566319,1,0
"1906",7.940836906,0.916394353,8.175912359,0.030909447,1,0
"1907",9.384584427,1.607058048,9.74515002,-0.046897735,1,0
"1908",10.88237,-0.94827807,12.31856113,0.127901778,1,0
"1909",9.610764504,-1.715881825,11.55871982,0.001065797,1,0
"1910",9.009464264,-3.118614912,11.06568371,0.268593907,1,0
"1911",10.63164139,-4.141438007,12.20916669,0.436998099,1,0
"1912",11.3327837,-1.592837691,11.67199985,0.053291984,1,0
"1913",10.33885002,-0.35401383,10.35048859,0.010658237,1,0
"1914",7.136110306,-0.742755413,7.191287428,0.327215672,1,0
"1915",7.291786671,-1.505419493,7.48614188,0.365585983,1,0
"1916",7.377109051,-3.044518948,8.25365344,0.200379431,1,0
"1917",9.079070091,-3.894301653,10.52517262,0.122572258,1,0
"1918",9.628277779,-0.600401461,11.14076094,0.196115986,1,0
"1919",7.760761261,-1.155297518,8.820884233,0.203576833,1,0
"1920",7.029382229,-2.689157963,8.136645144,0.432734907,1,0
"1921",6.810986519,-3.246299267,8.439959584,0.637378097,1,0
"1922",7.05108738,-2.074985027,8.377309452,0.60966599,1,0
"1923",9.555977821,-3.505410433,10.24632272,0.577690244,1,0
"1924",12.00039482,-2.467917919,12.43758772,0.571295202,1,0
"1925",9.804311752,-1.265618086,10.54139977,0.570229411,1,0
"1926",6.764732838,-1.563049674,7.503470826,0.743963122,1,0
"1927",7.738158226,-2.126029015,8.305714067,0.89531374,1,0
"1928",9.738898277,-2.856509924,10.40579177,0.73010695,1,0
"1929",9.901609421,-2.574496269,10.77700041,0.445524752,1,0
"1930",9.274863243,-2.898722172,9.910864492,0.518002689,1,0
"1931",8.922046661,-3.881129265,9.852979614,0.675748646,1,0
"1932",8.093668938,-3.369044066,9.366398235,0.741831482,1,0
"1933",6.949149132,-3.652404785,8.788910589,0.911301255,1,0
"1934",7.878865719,-5.15048933,10.03041449,1.308863521,1,0
"1935",10.21415997,-6.383176327,12.38479442,1.854578495,1,0
"1936",14.51037598,-10.05878258,17.71961287,1.930253863,1,0
"1937",17.6641674,-9.621092796,20.17530818,0.786597133,1,0
"1938",8.167016983,-7.829767704,11.75267485,0.35705933,1,0
"1939",3.843557358,-10.57670593,11.67560286,0.193984389,1,0
"1940",7.437733173,-9.067993164,13.18359491,-0.162009671,1,0
"1941",15.65354824,-7.419471264,18.18786327,-0.315491915,1,0
"1942",17.48199654,-4.393214226,18.24258816,-0.13642922,1,0
"1943",10.11177254,-1.955683112,10.2992576,-0.134297624,1,0
"1944",5.431904316,-3.695515156,6.802179761,-0.272857904,1,0
"1945",5.540728092,-7.173682213,9.065688,-0.312294245,1,0
"1946",8.294551849,-6.489305496,10.97643218,-0.165207073,1,0
"1947",10.08587646,-6.66279459,12.77821967,-0.15028511,1,0
"1948",8.237969399,-4.428690434,9.515580101,-0.271792114,1,0
"1949",6.345454693,-3.997886419,7.50230652,-0.327216208,1,0
"1950",6.255342007,-3.476520538,7.375435509,-0.281384796,1,0
"1951",6.107299805,-4.254901886,7.782231893,-0.262199402,1,0
"1952",5.679938316,-5.594615936,8.577199083,-0.610732317,1,0
"1953",5.865851879,-5.571713448,8.440511435,-0.87612915,1,0
"1954",5.148393631,-4.157903671,6.687836826,-1.194818139,1,0
"1955",4.498295784,-2.201621771,5.026171283,-1.184159637,1,0
"1956",4.758754253,-2.784060478,5.532641564,-1.290744662,1,0
"1957",4.946164608,-3.324137449,5.961073808,-1.389868617,1,0
"1958",5.400320053,-3.637286186,6.512518346,-1.799155235,1,0
"1959",6.951394558,-2.266885996,7.397344071,-2.01872015,1,0
"1960",8.044421196,-1.758692741,8.434463972,-1.924925327,1,0
"1961",12.5596323,-1.404379606,13.01923122,-1.370683432,1,0
"1962",13.4293232,-4.216880798,14.70920157,-0.646971285,1,0
"1963",12.74749184,-5.297783375,14.2730473,-0.497752279,1,0
"1964",13.0271101,-5.424719334,14.44532993,-0.23448734,1,0
"1965",11.15360641,-4.738546372,12.24483895,0.081004575,1,0
"1966",8.958420754,-4.001628399,10.49108799,0.027712055,1,0
"1967",8.569529533,-3.957170963,10.69796972,-0.360257775,1,0
"1968",8.615783691,-3.056493998,10.78280779,-1.189489126,1,0
"1969",9.843530655,-1.06937623,11.11921696,-1.880159736,1,0
"1970",12.43194771,-0.21031265,12.91310835,-2.05922246,1,0
"1971",19.35011101,1.600621462,19.54434249,-1.11914289,5,4
"1972",17.94333649,-2.697390795,18.18490823,0.856942892,1,0
"1973",7.838749409,-9.286388397,12.27551104,1.628618598,1,0
"1974",6.027964592,-4.139192581,7.463279604,-0.33680892,1,0
"1975",7.873626709,0.683927774,8.15185522,-0.936882258,1,0
"1976",9.026379585,2.438129902,9.773384808,-0.713053942,1,0
"1977",9.771829605,2.438279629,10.63731048,-0.624588251,1,0
"1978",11.47588539,1.543290734,11.75338112,-0.435932845,1,0
"1979",12.18915272,-0.398321688,12.38721765,-0.278187424,1,0
"1980",11.49265099,-2.169738054,12.1431026,-0.167338654,1,0
"1981",10.13946533,-2.213447094,10.70992706,0.070345536,1,0
"1982",9.47215271,-0.54381913,9.507802871,0.125770181,1,0
"1983",8.664582253,0.670306087,8.761787976,0.120440662,1,0
"1984",8.362958908,0.393831015,8.670649371,-0.01279063,1,0
"1985",9.945467949,-1.850002885,10.47493441,0.042633481,1,0
"1986",10.76666069,-2.037263393,11.91346182,0.019185146,1,0
"1987",8.818760872,-0.029638367,9.818894945,-0.118309863,1,0
"1988",7.978259087,-0.221689001,8.646191644,-0.003197924,1,0
"1989",8.829090118,-0.28021729,9.634812543,0.149218515,1,0
"1990",8.025859833,-1.600471854,8.896612796,0.286713541,1,0
"1991",7.805967331,-2.723286867,8.552386249,0.629916966,1,0
"1992",9.038654327,-1.564995527,9.298209676,0.683209479,1,0
"1993",7.933502197,-0.565973043,8.372347284,0.618192673,1,0
"1994",7.164401531,-1.026714921,7.875930489,0.869733274,1,0
"1995",9.063951492,-0.221239924,9.906474114,0.614995003,1,0
"1996",8.569828987,0.630339205,10.09413359,0.788728714,1,0
"1997",6.506220341,-2.164648533,8.272921999,1.205475926,1,0
"1998",7.94323206,-3.298241377,8.855673796,1.188422322,1,0
"1999",9.715396881,-2.734513521,11.03984725,0.861206651,1,0
"2000",9.729167938,-1.800755262,10.77778442,0.855877101,1,0
"2001",9.09149456,-2.289189577,9.816533711,0.798321426,1,0
"2002",8.997190476,-2.726130962,10.43972846,0.584085584,1,0
"2003",8.966204643,-2.966980219,11.27749326,0.370915502,1,0
"2004",8.240513802,-1.417402506,10.68244609,0.362388581,1,0
"2005",7.833659649,-1.414408684,9.662922452,0.574492872,1,0
"2006",8.415050507,-3.572021961,10.04299838,0.812177301,1,0
"2007",8.403524399,-4.641098976,10.0966241,1.183093309,1,0
"2008",7.633675575,-4.605772018,9.176290096,1.240648985,1,0
"2009",7.986492157,-5.210813999,9.606718859,1.531625986,1,0
"2010",10.7412138,-4.717440128,11.93263537,2.067748547,1,0
"2011",10.72474766,-3.541036367,12.10256739,2.267062426,1,0
"2012",8.257278442,-1.610650659,10.30553298,2.334211111,1,0
"2013",8.081095696,-1.672472119,9.531211578,2.389635325,1,0
"2014",7.342231751,-0.719403982,7.456851691,2.399228096,1,0
"2015",6.860234261,-1.037791848,6.961649883,2.390701056,1,0
"2016",8.727601051,-2.295027494,9.053971691,2.456783772,1,0
"2017",11.39310837,-6.566395283,13.39799106,2.481298447,1,0
"2018",11.84007835,-13.17694855,17.9531369,2.197782278,1,0
"2019",9.287735939,-10.65978241,14.15813294,1.142590642,1,0
"2020",4.92939949,-11.18638802,13.66270116,0.403957069,1,0
"2021",5.052742958,-9.491312981,13.49825813,0.363454372,1,0
