"","accelY","accelZ","accelMag","gyroX","risk","step"
"1",9.9218177795,-2.2532644272,10.8829726887,-1.8226035833,0,0
"2",13.1365327835,-1.4094690084,13.6040168664,-1.8108794689,0,0
"3",11.6613502502,-0.0136216739,11.8213025754,-2.1285028458,0,1
"4",8.3319740295,-0.3797602952,8.4476772389,-1.989942193,0,0
"5",5.5934185982,-1.2596305609,5.9773784803,-1.312061429,0,0
"6",6.2358822823,-2.1954843998,7.0000749312,-0.843087852,0,0
"7",8.1011533737,-2.6548790932,9.3486425547,-0.9475412369,0,0
"8",9.5872631073,-1.7703684568,10.9114131565,-1.3866711855,0,0
"9",9.7899417877,-0.7065307498,11.2848472883,-1.7181506157,0,0
"10",8.5833005905,1.3442046642,10.4986963825,-1.4623465538,0,0
"11",8.2518901825,1.1883788109,9.9058314094,-0.9102359414,0,0
"12",8.6882324219,-2.1947360039,9.4225721718,-0.8665361404,0,0
"13",9.0419473648,-2.7753784657,9.5518987396,-1.0509283543,0,0
"14",10.163564682,-1.6997153759,10.3836270049,-1.2683616877,0,0
"15",10.5785017014,-2.0146605968,10.8276698249,-1.2790204287,0,0
"16",10.2532281876,-0.6511459351,10.3211027387,-1.0626527071,0,0
"17",9.1637935638,1.53520751,9.5253599885,-0.7983219624,0,0
"18",9.4013500214,3.165766716,10.4584830427,-0.7471610308,0,0
"19",9.3097400665,0.9168434143,9.8612447619,-0.9507386684,0,0
"20",9.674082756,0.9223818779,9.9162877969,-1.1255376339,0,0
"21",9.3164758682,0.2002835125,9.7826991364,-0.6682880521,0,0
"22",10.2840642929,-0.1980381757,10.5114908467,-0.5254642963,0,0
"23",10.290350914,0.3493734598,10.5280318508,-0.4849621654,0,0
"24",9.7278213501,1.6467256546,10.1949948316,-0.3879698515,0,0
"25",9.6487855911,2.0210971832,10.3112218816,-0.3570598662,0,0
"26",10.8627605438,1.5022759438,11.4896850766,-0.4529863894,0,0
"27",10.981762886,1.5227833986,11.3178084759,-0.4785668552,0,0
"28",10.8449478149,2.2326073647,11.3661128949,-0.4540521801,0,0
"29",13.0883331299,4.2074503899,14.4658896336,-0.4913569391,0,0
"30",15.0532960892,3.7122802734,16.1007238,-0.5222669244,0,1
"31",14.3894271851,2.4721093178,14.6255946894,-0.2515411675,0,0
"32",14.9479160309,1.7335450649,15.0956393179,0.1790626943,0,0
"33",14.7498779297,1.1050021648,14.9226025469,0.3634543717,0,0
"34",14.0339164734,0.8779243231,14.2051768148,0.8686674833,0,0
"35",12.1771774292,3.1151719093,12.8615605107,1.9632954597,0,0
"36",10.2589168549,3.2462992668,11.2720351692,2.2990381718,0,0
"37",9.9194221497,2.3164329529,10.5596378218,2.3565938473,0,0
"38",10.9368562698,0.6855743527,10.9601718148,2.8607413769,0,0
"39",11.3505964279,-0.982407093,11.3958796768,3.3926000595,0,0
"40",11.6273708344,-0.637673974,11.7034248752,3.7411329746,0,0
"41",11.3585300446,-1.4259347916,11.5462453048,4.0854029655,0,0
"42",9.9984579086,-4.0161485672,11.1919417275,4.1813292503,0,0
"43",9.5992383957,-2.2492227554,11.7398163514,3.6675896645,0,0
"44",9.1940307617,-1.1777508259,11.0660684294,3.0962939262,0,0
"45",9.5907058716,-1.3867163658,10.7148797079,2.5740275383,0,0
"46",9.0953865051,-1.1448193789,9.5803267918,2.1807289124,0,0
"47",8.0080471039,-2.9069550037,8.7222709519,2.0901312828,0,0
"48",6.8768496513,-4.0987763405,8.032221279,2.4642448425,0,0
"49",3.6327955723,-4.6803174019,5.9469734508,2.9140338898,0,0
"50",1.4775773287,-5.4274134636,5.756550582,2.9481406212,0,0
"51",2.9123437405,-4.5319757462,5.3929180189,2.5228664875,0,0
"52",3.3835637569,-3.7597315311,5.085054992,2.0272462368,0,1
"53",1.1677217484,-5.2154545784,5.4809507456,1.4708726406,0,0
"54",0.3438349962,-5.8695940971,6.0873069153,0.6149950027,0,0
"55",2.034569025,-4.8005170822,5.2513863686,-0.0405026861,0,0
"56",2.7773244381,-4.8261141777,5.5862599953,-0.4284717143,0,0
"57",2.3126907349,-7.6505904198,7.9998164156,-0.7865979075,0,0
"58",3.1488518715,-8.8355264664,9.4429507651,-0.9901747704,0,0
"59",3.7040474415,-9.2642345428,10.2033070757,-0.9837799668,0,0
"60",3.9339692593,-9.0401506424,10.3494440639,-0.9731211662,0,0
"61",3.62561059,-8.7346363068,10.1828063262,-1.234254837,0,0
"62",3.2665071487,-9.7426404953,11.0367055052,-1.8098137379,0,0
"63",3.8467006683,-8.935218811,10.9729910365,-1.9888763428,0,0
"64",10.6082897186,-11.5019311905,17.2216271629,-0.9454091191,0,0
"65",19.4638748169,-16.3117294312,28.7361900001,-0.082070902,0,0
"66",12.9717254639,-8.9087238312,16.4226499133,-1.11914289,0,0
"67",-3.4498758316,-5.4465737343,7.7122733554,-1.1820280552,0,0
"68",0.6210585237,-4.8259644508,4.8695452568,-1.4698073864,0,0
"69",4.7391448021,-5.2203941345,7.8474637545,-2.1295685768,0,0
"70",11.5683937073,-4.9416737556,13.6937848995,-1.9856790304,0,0
"71",18.6091518402,-3.4422419071,19.6868551482,-1.8258014917,0,0
"72",13.7195701599,0.0079335021,13.836468506,-2.0538933277,0,0
"73",6.0388922691,-1.2623249292,6.1726361155,-1.7341383696,0,0
"74",3.8907091618,-2.3555016518,4.5694867293,-1.2982058525,0,0
"75",6.0562558174,-2.4281008244,6.6858398659,-1.2640984058,0,0
"76",10.9030265808,-0.5191204548,11.7689841289,-1.3429714441,0,0
"77",11.8948640823,-0.3751199245,12.7863938257,-1.4943220615,0,0
"78",12.6430091858,1.1567944288,13.5126560368,-1.6723189354,0,0
"79",6.6918344498,-0.183518365,8.3177033394,-0.8665361404,0,0
"80",6.3144688606,-1.0798544884,8.4729790633,-0.7684780359,0,0
"81",6.3990430832,-2.8981232643,9.419030312,-1.0455988646,0,0
"82",7.2515201569,-1.5657440424,9.9826158099,-1.4463585615,0,0
"83",9.686955452,-3.4835557938,10.7888040367,-0.802585125,0,1
"84",10.1982927322,-3.0425729752,10.7912674956,-0.5393204689,0,0
"85",9.5748386383,-3.5140924454,10.2071190767,-0.4668428302,0,0
"86",9.4071874619,-1.0009684563,9.8899222511,-0.4455255568,0,0
"87",9.6844110489,0.7637118697,10.5696639647,-0.349599272,0,0
"88",8.507109642,1.0139913559,10.7134968422,-0.1310997009,0,0
"89",8.6985616684,0.2733316123,9.8336788914,-0.2163679898,0,0
"90",8.3848133087,-0.5146298409,8.8590899494,-0.3368089199,0,0
"91",8.3557739258,-0.5231620669,8.7361305397,-0.2739236951,0,0
"92",7.9834980965,-1.1337423325,8.7959877231,0.0991239175,0,0
"93",8.8383703232,-2.183359623,9.6083074706,0.1033871099,0,0
"94",7.9379930496,-1.9411633015,9.1047280238,0.0628849566,0,0
"95",7.275021553,-0.086220704,8.6784155023,0.203576833,0,0
"96",7.6805281639,1.8441650867,8.9381559972,0.1193748638,0,0
"97",9.7763204575,1.1057505608,10.4743935931,-0.0628857538,0,0
"98",10.7093296051,-1.3585748672,11.1990429878,0.1236380562,0,0
"99",11.6032705307,-1.3653107882,11.7668699541,0.4764347374,0,0
"100",11.1092977524,1.0659333467,11.7947367164,0.2856471837,0,0
"101",11.8818416595,0.7981402874,13.1702635154,-0.3996938765,0,0
"102",14.3993062973,3.4560132027,15.9923697397,-0.9454091191,0,0
"103",15.4689817429,1.2934602499,16.4545327478,-0.8473510146,0,0
"104",17.6321334839,0.2186952233,17.9108288621,-0.958199501,0,0
"105",18.6778583527,2.5755441189,19.0683424704,-0.9283555746,0,0
"106",15.5637350082,2.5583298206,16.1736421513,-0.4391307533,0,0
"107",12.9760665894,1.3937516212,13.2899913788,-0.2089068741,0,0
"108",12.6846218109,0.7755372524,12.7700952479,-0.086334087,0,0
"109",11.4468460083,0.5721102953,11.4673456065,0.417812705,0,0
"110",10.2481384277,0.0618214421,10.3853718952,0.9315527081,0,0
"111",10.6027517319,-0.3049159348,10.9916391676,1.298205018,0,0
"112",10.2250871658,-0.1480421424,10.9532099787,1.6243548393,0,0
"113",9.2883348465,0.2540217638,9.8327839154,1.8417886496,0,0
"114",9.5196037292,-0.0540376268,9.6887706292,1.985678196,0,0
"115",11.4589710236,-0.1529818773,11.4818064198,2.2073748112,0,0
"116",12.5198144913,0.1050814837,12.5257802998,2.53992033,0,0
"117",12.0685033798,-0.5459147692,12.1084790495,2.8170411587,0,0
"118",10.7135210037,-2.0808229446,10.9457422209,3.117610693,0,0
"119",7.6437048912,-2.3132894039,7.9994668783,3.0621864796,0,0
"120",7.3798036575,-0.7072792053,7.4270538572,2.9044408798,0,0
"121",8.4241819382,-1.7450710535,8.6338468873,2.4461255074,0,0
"122",8.3153581619,-5.0666637421,10.4302551344,2.6902053356,0,0
"123",7.5203614235,-6.6032185555,11.2722422811,2.658229351,0,0
"124",5.2615585327,-2.5339307785,8.9659559836,2.5750932693,0,0
"125",5.6422171593,-2.4307951927,7.0623263447,2.5559079647,0,0
"126",5.2557206154,-3.0219159126,6.4056405126,2.4312038422,0,0
"127",1.3967454433,-3.5959720612,3.8802002499,1.9334515333,0,0
"128",2.4679179192,-4.4710521698,5.1378203281,1.5433503389,0,0
"129",3.7115318775,-4.2020616531,5.7608752031,1.2939414978,0,1
"130",2.9153375626,-4.9591875076,5.7827819444,0.8889186978,0,0
"131",2.7872040272,-5.4687275887,6.1787883428,0.4295372665,0,0
"132",3.146905899,-5.8128619194,6.6172307361,0.0127898315,0,0
"133",3.5163376331,-6.2596831322,7.1860384575,-0.3389405012,0,0
"134",3.337010622,-7.2983727455,8.1578372273,-0.5169374347,0,0
"135",3.915407896,-8.5270175934,10.0333207985,-0.6235224605,0,0
"136",4.4970984459,-8.8172645569,10.9369266033,-0.634180963,0,0
"137",5.8134608269,-8.9932985306,11.5644344877,-0.8164415956,0,0
"138",5.4678297043,-8.6979627609,11.1664366817,-0.7961903811,0,0
"139",6.1857366562,-8.2691040039,11.0431843033,-0.7674122453,0,0
"140",7.4766521454,-8.1007041931,11.5407563182,-0.5766252279,0,0
"141",13.905333519,-12.5352325439,19.0581850265,0.0873993561,0,0
"142",19.5173130035,-13.4374065399,25.1781009526,-0.2216969728,0,0
"143",5.5426740646,-9.0956850052,10.7317378152,-0.9347506166,0,0
"144",1.6850459576,-7.5709562302,7.9697413408,-0.8356267214,0,0
"145",2.2731728554,-5.827082634,6.4293481267,-1.4239759445,0,0
"146",4.8364424706,-3.6604878902,6.814667803,-1.9238595963,0,0
"147",9.858499527,-3.0311965942,11.4224534417,-1.8673694134,0,0
"148",16.0315132141,-0.0773890689,16.7653619722,-1.712821126,0,0
"149",11.8978586197,-0.0498463437,11.9818276455,-1.6904386282,0,0
"150",7.6957964897,-1.1681708097,7.8110396584,-1.5316268206,0,0
"151",6.9259471893,-2.1204903126,7.2527108222,-1.2321226597,0,0
"152",7.9305086136,-1.7178277969,8.2595464786,-1.0008332729,0,0
"153",9.6335172653,-2.887196064,10.6896834792,-0.991240561,0,0
"154",11.0750198364,-1.8748512268,12.105957179,-1.2768884897,0,0
"155",10.9356594086,-0.2472857684,11.9990958827,-1.5039147139,0,0
"156",8.8181629181,0.7170089483,10.1864361354,-1.3365761042,0,0
"157",6.2126808167,0.1904040575,7.9012082878,-0.9422117472,0,0
"158",5.864654541,0.025297394,7.5751126624,-0.9219608307,0,0
"159",6.665189743,0.3390449584,8.2159233309,-1.1511180401,0,0
"160",10.0453109741,-0.4273613095,10.8787281179,-1.2449133396,0,0
"161",10.4234247208,-0.921184361,10.8311669947,-1.1980158091,0,0
"162",9.2432785034,-1.8485059738,9.4959459187,-0.8228366375,0,0
"163",8.3304767609,-1.0755134821,8.5974721165,-0.6096665263,0,0
"164",8.7855300903,-0.8500822186,9.0567398181,-0.6491029263,0,0
"165",9.8586492538,3.0511052608,11.2653568146,-0.755687952,0,0
"166",9.8278131485,1.4388079643,10.8226147568,-0.6192592382,0,0
"167",9.449549675,-0.623752892,9.8906832387,-0.523332715,0,0
"168",8.8832769394,-1.5154485703,9.2680549716,-0.3389405012,0,0
"169",8.8274431229,-0.9496252537,9.1661739795,-0.426340133,0,0
"170",7.7528281212,1.3678555489,8.0949296129,-0.2334215492,0,0
"171",7.8978762627,2.2743704319,8.5457653602,-0.1822606176,0,0
"172",9.9336433411,1.3157638311,10.4872180705,-0.3687844276,0,0
"173",10.2173032761,-0.264200598,10.5722351356,-0.3837061226,0,1
"174",10.7921075821,0.1806742847,11.095470886,-0.3698502183,0,0
"175",11.5561189651,1.413510561,11.9001397902,-0.1620096713,0,0
"176",13.2405662537,2.2297632694,13.7972609746,0.2142353356,0,0
"177",14.9048051834,1.900298357,15.4950095726,0.5638343692,0,0
"178",15.4683837891,4.1797580719,16.7344780357,0.6768144369,0,0
"179",14.9459695816,4.120631218,15.9421652754,0.5307930112,0,0
"180",14.4543914795,2.095492363,14.6420022323,0.7066583633,0,0
"181",12.4220685959,1.1576925516,12.4763399127,1.153249383,0,0
"182",10.7716007233,1.0023156404,10.8815859441,1.6328817606,0,0
"183",11.0938796997,0.5155279636,11.3915901351,2.2819843292,0,0
"184",11.0317592621,0.1112187207,11.4564865196,3.0771086216,0,0
"185",11.3296394348,0.4369413853,11.9603391731,3.4949219227,0,0
"186",10.5844898224,-0.7466473579,11.2969850822,3.8168087006,0,0
"187",9.643995285,-0.7276368737,10.1459187237,4.0107932091,0,0
"188",9.4869718552,-1.9378701448,9.8812193781,3.8146765232,0,0
"189",11.2179718018,-2.5394692421,11.79029592,3.1453230381,0,0
"190",11.3309869766,-1.4063255787,12.1927647883,2.3278160095,0,0
"191",9.5731925964,-1.4106664658,11.0783563974,2.0869340897,0,1
"192",6.6788115501,-2.7440936565,10.415959408,1.9782173634,0,0
"193",6.1978616714,-2.9572503567,9.8363757411,1.857776165,0,0
"194",6.6969237328,-3.2195050716,8.1946217089,1.4623457193,0,0
"195",6.2255539894,-2.26359272,6.6311038707,1.4921894073,0,0
"196",5.5988073349,-1.9648141861,6.1559900529,1.622223258,0,0
"197",3.7820351124,-3.4843044281,5.603213696,1.54441607,0,0
"198",2.5418641567,-5.0049920082,5.7702201582,1.0605202913,0,0
"199",2.963088274,-6.3337788582,6.9961602715,0.6427070498,0,0
"200",3.2784824371,-6.7174310684,7.480581959,0.4743031263,0,0
"201",3.7808377743,-7.8429403305,8.8428531906,-0.0415684842,0,0
"202",4.2441244125,-8.1839313507,9.7077857478,-0.2600677907,0,0
"203",4.3306446075,-8.4967803955,10.4295155943,-0.4306038618,0,0
"204",4.2504110336,-8.6291055679,10.4160930832,-0.6949343085,0,0
"205",4.711602211,-9.3043518066,11.0092373989,-1.0658503771,0,0
"206",5.5157299042,-9.5121192932,11.5750393894,-1.1884227991,0,0
"207",11.4022388458,-11.1386375427,16.7789984814,-0.2366189361,0,0
"208",17.1547756195,-10.6835832596,21.422934163,-0.4700402021,0,0
"209",13.2761917114,-9.1245756149,16.1504301882,-1.3205883503,0,0
"210",4.3412723541,-7.1419482231,8.6260366508,-1.1820280552,0,0
"211",4.1591010094,-6.2990512848,7.5784652791,-1.2065427303,0,0
"212",5.499563694,-6.488407135,9.2298248493,-1.591314435,0,0
"213",8.8352270126,-5.7875647545,11.7272944111,-1.8620404005,0,0
"214",10.916349411,-3.6329452991,12.2812928643,-1.9782178402,0,0
"215",11.7489175797,-2.0850141048,12.4370675323,-1.9238595963,0,0
"216",9.9270563126,-1.7953665257,10.5431377204,-1.7735747099,0,0
"217",7.6549315453,-1.8519488573,8.3414591527,-1.712821126,0,0
"218",6.6647405624,-1.9968475103,7.4873744234,-1.6669896841,0,0
"219",7.4357872009,-1.816921711,8.3763677135,-1.6851090193,0,0
"220",8.3785266876,-1.6341518164,9.1685229647,-1.8012868166,0,0
"221",8.9929990768,-1.3016930819,9.4225163028,-1.7693110704,0,0
"222",9.272767067,-1.0856922865,9.8017651584,-1.4932562113,0,0
"223",9.2027130127,-2.1701869965,10.1616771107,-1.1393940449,0,0
"224",8.8723497391,-2.7604095936,9.9645952996,-1.0296115875,0,0
"225",8.0122385025,-1.2928614616,8.957257394,-1.0104261637,0,0
"226",7.7610607147,0.0531394966,8.5902980461,-1.0466651917,0,0
"227",8.9320755005,0.1422042847,9.7815616058,-1.2545057535,0,0
"228",9.1061639786,-0.2366578728,10.1681390749,-1.4623465538,0,0
"229",9.5842695236,-1.8708096743,10.9077339802,-1.2843494415,0,0
"230",10.696606636,-1.7681231499,11.5816959532,-0.9624626637,0,0
"231",10.0622253418,-2.5385711193,10.459483495,-0.8100462556,0,0
"232",8.9792280197,-1.9395167828,9.1984785232,-0.7897952795,0,0
"233",8.6606903076,-1.1570937634,8.800621739,-0.8228366375,0,0
"234",8.8653144836,-0.0669108555,9.1799497137,-0.7770046592,0,0
"235",9.0151529312,1.2274475098,10.11677726,-0.7684780359,0,0
"236",8.7807407379,1.5905923843,10.1109627327,-0.7855315804,0,0
"237",8.6329975128,-0.5845344663,9.3421654011,-0.9454091191,0,0
"238",8.635392189,-1.8348842859,9.0257847495,-1.0519942045,0,0
"239",9.7260246277,-0.4990621805,9.8764871371,-0.9230266213,0,0
"240",9.7814092636,1.2714560032,10.1968344769,-0.8484168053,0,0
"241",10.3428916931,1.5488291979,10.9935557823,-0.877194941,0,0
"242",11.1191778183,1.7342934608,11.608947171,-0.6181934476,0,0
"243",11.8664236069,2.7689418793,12.7086732579,-0.327216208,0,0
"244",13.6149377823,2.8154952526,14.6770309473,-0.3879698515,0,0
"245",14.6920976639,2.072889328,15.4625688013,-0.5787568092,0,1
"246",15.5637350082,2.0064275265,15.9822389251,-0.1801290214,0,0
"247",14.5522880554,2.1134550571,15.0920692282,0.586217165,0,0
"248",13.5344047546,2.788700819,14.2041364421,1.150051713,0,0
"249",12.3288116455,2.3858885765,12.6328203511,1.6755157709,0,0
"250",11.5784225464,1.7573455572,11.7207023113,2.2318894863,0,0
"251",10.3584594727,0.6174659729,10.380141122,2.9492063522,0,0
"252",10.6376285553,-0.5201683044,10.7194557069,3.1463890076,0,0
"253",11.2998514175,-0.8653504848,11.6059769064,3.0813720226,0,0
"254",11.5356111526,-0.8605604768,11.9727658539,2.8170411587,0,0
"255",10.2958898544,0.1010398865,10.6152226958,2.7541563511,0,0
"256",9.5357704163,0.010328522,9.8239387852,2.7669460773,0,0
"257",9.8493680954,-0.4167333841,10.4045911045,2.1775312424,0,0
"258",8.879983902,-2.1818628311,9.8717418076,1.6648572683,0,0
"259",7.7520794868,-2.0725901127,8.7303966545,1.6691207886,0,0
"260",7.1343140602,-4.6418471336,8.6714465336,1.824734807,0,0
"261",6.5948357582,-4.2875342369,7.9210356318,1.8002202511,0,0
"262",6.5668439865,-3.7432658672,7.6002744424,1.9185295105,0,1
"263",6.5370559692,-3.2320787907,7.4449200202,1.9771515131,0,0
"264",5.098098278,-3.0614337921,6.1901560005,1.7895619869,0,0
"265",2.8855495453,-3.54971838,4.7915006968,1.2726244926,0,0
"266",1.6612454653,-4.8686256409,5.3712704161,0.6512339711,0,0
"267",1.9020946026,-5.1383647919,6.2423088052,0.0703455359,0,0
"268",4.8568000793,-5.1223478317,7.4745999334,-0.386904031,0,0
"269",4.9488587379,-6.568789959,8.6098025678,-0.6192592382,0,0
"270",4.8121929169,-7.1067714691,8.9848144424,-0.7428978682,0,0
"271",4.5542793274,-6.9229536057,8.9970664436,-0.805783093,0,0
"272",4.562212944,-6.8889741898,9.0677088008,-0.9102359414,0,0
"273",6.0082058907,-6.9328331947,9.9862958466,-1.0850358009,0,0
"274",6.6249232292,-7.5208106041,10.6386846042,-1.3280494213,0,0
"275",6.5755262375,-6.700366497,10.1885753602,-1.3408398628,0,0
"276",6.709197998,-5.5835390091,9.5858618897,-1.3067324162,0,0
"277",6.6268692017,-4.6172981262,8.6989363448,-1.4271733761,0,0
"278",8.0349912643,-5.104385376,9.855392111,-1.4218443632,0,0
"279",17.8771743774,-7.260052681,20.1803339944,-0.5649009347,0,0
"280",19.542011261,-8.2765884399,23.2136418717,0.5659661889,0,0
"281",8.3997821808,-6.0941271782,10.3905904898,-0.5414520502,0,0
"282",-0.7005432248,-3.726051569,5.9975848105,-0.1492193192,0,0
"283",0.7197033763,-3.4215848446,4.3842033586,-0.3911672235,0,0
"284",7.0862641335,-1.6479231119,7.3660902094,-0.5798226595,0,0
"285",13.242811203,0.5345384479,14.5487608706,-0.4231427312,0,0
"286",15.1044902802,0.5457651019,16.7941167793,-0.7855315804,0,0
"287",13.1215639114,0.6253994703,14.4318271077,-1.5444169044,0,0
"288",6.5836091042,0.2884501517,8.1131260893,-1.517770648,0,0
"289",6.7779054642,-2.4896228313,8.0668176726,-1.126603961,0,0
"290",7.0211496353,-3.0934669971,8.542520868,-1.1383283138,0,0
"291",7.6056838036,-3.0633797646,9.0484206703,-1.3546956778,0,0
"292",10.3301687241,-1.4227912426,11.01074353,-1.550812006,0,0
"293",11.4776821136,2.3561005592,11.9762923975,-1.2299910784,0,0
"294",10.6951093674,4.4545865059,11.7608579424,-0.5819544792,0,0
"295",8.4437913895,-0.2893483043,8.990700898,-0.1289681047,0,0
"296",8.6541032791,-3.1091845036,10.0636554315,-0.563835144,0,0
"297",8.9037847519,0.1769320667,10.1323083945,-0.886787653,0,0
"298",9.097032547,0.6261479259,10.6905195644,-0.4380649626,0,0
"299",10.6997499466,-0.8827143908,11.5575752287,-0.007461112,0,0
"300",9.88514328,0.2779719532,10.3633048082,-0.007461112,0,0
"301",8.5946769714,-0.052989807,9.1618693427,-0.099124454,0,0
"302",7.4994049072,-0.3216810524,8.4729709593,-0.1598775536,0,0
"303",7.9360470772,0.7726931572,9.6138931197,-0.3709160089,0,0
"304",8.0990581512,0.2414479107,9.0957519844,-0.4711059928,0,0
"305",8.8898630142,-0.9758207798,9.1478353639,-0.3069652617,0,0
"306",9.2893829346,-1.5980768204,9.4285009059,-0.0351731665,0,0
"307",8.7002077103,-0.3580554128,8.8642031046,0.1310991645,0,0
"308",8.223897934,0.9087602496,8.7818364392,0.2046426237,0,0
"309",8.0686712265,1.3006453514,9.0967421181,-0.0021321268,0,0
"310",9.7309646606,0.1113684103,10.2002158348,0.0639507547,0,0
"311",10.2219429016,0.2236349434,10.5225674752,0.0927286074,0,0
"312",10.8702449799,1.0126441717,11.6269660846,-0.1982486397,0,0
"313",11.1086997986,1.617087245,12.2360224485,-0.364520967,0,0
"314",11.1820468903,1.680106163,12.3225453252,-0.3634551764,0,0
"315",13.4065704346,3.1859748363,15.0121761494,-0.6661564708,0,0
"316",16.0220813751,5.3712801933,18.7655396217,-1.1393940449,0,1
"317",16.0723781586,4.5411067009,18.6008939467,-1.2172012329,0,0
"318",16.8106422424,1.0247689486,16.9378117044,-0.4178134799,0,0
"319",13.8968009949,1.0976673365,13.9402230515,0.4849616289,0,0
"320",11.8203191757,1.1078462601,11.8731283219,0.8558771014,0,0
"321",10.1888618469,-0.1669029295,10.7460898452,1.659528017,0,0
"322",10.1360216141,1.226549387,11.1183369432,1.931319952,0,0
"323",10.0493526459,0.9261240959,10.9137741411,2.1711359024,0,0
"324",10.5704183578,0.7204518318,10.9874511579,2.5633687973,0,0
"325",10.6756496429,0.3489243984,10.7831056629,2.995038271,0,0
"326",11.7781076431,-0.4559518397,11.8174683149,3.2934761047,0,0
"327",12.9962739944,-0.7420070171,13.0784277659,3.3105297089,0,0
"328",12.2060670853,-0.4125421047,12.2758870537,3.3872711658,0,0
"329",9.8635883331,-0.3823049963,10.0268358638,3.5215682983,0,0
"330",9.7273721695,-0.8858578205,10.2231685873,3.2241957188,0,0
"331",9.6534252167,-2.1258792877,10.7208997167,2.9577333927,0,0
"332",9.2118434906,-1.7549505234,10.8219362218,2.930021286,0,0
"333",8.6850891113,-1.2964539528,9.9459419141,2.7829341888,0,0
"334",7.2302646637,-2.1853055954,8.2002887582,2.5964102745,0,0
"335",4.8231201172,-3.5952236652,6.2954163483,2.3576598167,0,1
"336",0.6087840199,-3.0960118771,3.2387176698,2.1881895065,0,0
"337",0.3005749583,-3.8742434978,3.8861315413,2.0368387699,0,0
"338",2.8380980492,-4.4122247696,5.2533230029,1.4580825567,0,0
"339",3.4483790398,-4.0787181854,5.3458722457,1.0157546997,0,0
"340",2.0619621277,-5.2112631798,5.6433933893,0.5819539428,0,0
"341",1.5545173883,-6.3005480766,6.4957220232,0.1012555137,0,0
"342",1.8256036043,-7.5983490944,7.9464519813,-0.3709160089,0,0
"343",2.7129583359,-9.0307207108,9.563960743,-0.6192592382,0,0
"344",3.8781354427,-8.6868858337,9.8048944824,-0.5840860605,0,0
"345",4.8047084808,-9.1625967026,10.7176463279,-0.8302971721,0,0
"346",4.4286904335,-8.0727128983,9.6970545751,-1.2001473904,0,0
"347",4.0556659698,-7.8406953812,9.4126996712,-1.5806555748,0,0
"348",5.9260268211,-8.1553411484,10.433356462,-1.5689315796,0,0
"349",10.8861122131,-9.8023662567,14.7572872458,-0.0522267185,0,0
"350",19.4692630768,-18.9992408752,27.4059883201,1.0839691162,0,0
"351",17.3165893555,-8.5319576263,19.7019416278,-0.283516407,0,0
"352",-3.3905992508,-8.5324068069,9.2932692259,-1.483663559,0,0
"353",0.6962022185,-4.7526168823,5.4614194731,-2.1839270592,0,0
"354",5.3938832283,-4.2766065598,7.2900329794,-2.2585363388,0,0
"355",9.907746315,-3.9543268681,11.3449551701,-2.1178438663,0,0
"356",18.4206943512,-2.0591180325,18.604329153,-1.6552654505,0,0
"357",14.6992826462,-2.3384370804,15.2985083358,-1.6552654505,0,0
"358",10.8876094818,-2.5812323093,11.6898386854,-1.6787140369,0,0
"359",4.2845401764,-4.7050156593,6.3866184052,-1.7341383696,0,0
"360",5.1015415192,-3.9142103195,6.5033639859,-1.8684355021,0,0
"361",5.8865089417,-2.9527597427,7.0180551105,-1.9089375734,0,0
"362",10.2879562378,0.4632865787,11.8108910166,-1.8375257254,0,0
"363",12.1210441589,2.1752765179,14.8233057196,-1.9387812614,0,0
"364",11.2094402313,1.8414705992,14.028478268,-1.9867447615,0,0
"365",6.7193770409,-1.7009129524,7.9682712785,-1.588116765,0,0
"366",6.6235761642,-2.2406904697,7.2438594201,-1.3888027668,0,0
"367",7.5282950401,-1.8154247999,7.9006458067,-1.2918105125,0,0
"368",10.1863174438,-3.0699660778,10.6926385673,-1.1308671236,0,0
"369",10.2366132736,-2.5021965504,10.5501217514,-1.0690476894,0,0
"370",10.1397638321,-2.2382955551,10.4131719805,-1.0104261637,0,0
"371",9.4526929855,-1.3317805529,9.7978873331,-0.8164415956,0,0
"372",9.4941568375,-0.9833052158,9.8638319772,-0.7013296485,0,0
"373",9.5056829453,-0.3900887966,9.9107455573,-0.6480371356,0,0
"374",9.7426404953,-0.5013075471,10.0566404353,-0.6586956382,0,0
"375",9.4589796066,-1.0276130438,9.6279026955,-0.5723620653,0,0
"376",8.4927396774,0.8485853672,8.6891346224,-0.4966864586,0,0
"377",7.7877054214,0.7496411204,8.0763275095,-0.6938685179,0,0
"378",8.1147756577,0.1773811281,8.4112211936,-0.883589685,0,0
"379",8.9153108597,-0.6310876608,9.4129829516,-0.9027754068,0,0
"380",9.001531601,0.8116122484,9.6723250129,-0.9773849249,0,0
"381",8.6949691772,1.5144008398,9.1595948655,-1.1372624636,0,0
"382",10.1804800034,0.1261875927,10.2825926858,-0.9795165062,0,0
"383",12.0137176514,-0.9142987132,12.0485835466,-0.4615133107,0,0
"384",11.5806674957,0.2249821424,11.6365279598,-0.0479635298,0,0
"385",9.6582155228,0.8662486076,10.0326926837,0.1001897156,0,0
"386",9.3649749756,2.5060884953,10.4535242298,0.0277120546,0,0
"387",10.0047454834,2.2056632042,11.173626529,-0.1939849257,0,0
"388",10.467133522,0.8611592054,11.2548153214,-0.4732376039,0,0
"389",11.2377309799,0.4754113853,11.727559189,-0.6213908792,0,1
"390",11.8213672638,0.918939054,12.219235774,-0.4007596672,0,0
"391",12.947924614,-0.3421884179,13.3327196616,-0.0234488677,0,0
"392",14.5692033768,-0.8247848749,14.7435630072,0.493488282,0,0
"393",14.8733711243,-1.3627661467,15.0373076289,1.3408390284,0,0
"394",14.0196962357,-0.050594788,14.0692952332,2.004863739,0,0
"395",12.8733797073,0.1308279485,12.9625479334,2.3022356033,0,0
"396",12.2410945892,-0.6848258972,12.3800581026,2.6955342293,0,0
"397",12.6564807892,-1.4356645346,13.0166273155,3.1581132412,0,0
"398",13.1390771866,-1.0258167982,13.5673195147,3.0152893066,0,0
"399",13.8340816498,0.9096583724,14.3111774217,2.4429278374,0,0
"400",13.9834709167,2.4819886684,14.7876174471,2.3608574867,0,0
"401",13.5872449875,2.1706361771,14.3327557351,2.4962203503,0,0
"402",11.5436944962,-0.2541714609,12.1636968324,2.940680027,0,0
"403",9.9637298584,-6.2230091095,11.787244491,3.6281526089,0,0
"404",9.6369600296,-6.5318169594,11.7565665868,3.5354239941,0,0
"405",9.5959453583,-4.7457313538,10.8130729391,3.5300946236,0,0
"406",9.4892168045,-3.0308971405,9.9652047385,3.5897824764,0,0
"407",6.2019028664,-4.0094122887,8.1654239669,3.4554853439,0,1
"408",3.7203633785,-4.027823925,6.6125431629,3.3318464756,0,0
"409",1.3642630577,-4.6722340584,5.0874540585,2.5527102947,0,0
"410",2.5614733696,-4.303850174,5.1138103494,1.7799692154,0,0
"411",1.6690292358,-4.2758584023,4.6094399658,1.3866707087,0,0
"412",0.8994795084,-4.9091911316,5.0012216983,0.7610166669,0,0
"413",0.8879535198,-6.557264328,6.627475492,0.3495987356,0,0
"414",-0.0610729977,-8.2155160904,8.248860136,-0.3911672235,0,0
"415",-0.0453556813,-7.7353143692,7.8655590808,-0.6512345076,0,0
"416",0.8574169874,-6.6407904625,6.8959314929,-1.0349406004,0,0
"417",2.6945466995,-7.5306897163,8.0236809238,-1.2065427303,0,0
"418",3.3091685772,-7.9273648262,8.5909583534,-1.2353205681,0,0
"419",3.8035902977,-9.5941486359,10.5456043071,-1.5412194729,0,0
"420",4.5149111748,-10.8629102707,12.1957003662,-1.720282197,0,0
"421",5.3820581436,-11.2417726517,13.1605232167,-1.5071121454,0,0
"422",5.8478894234,-11.9860248566,13.4959580764,-1.3802762032,0,0
"423",7.1308712959,-11.7897834778,13.7907305781,-1.1873570681,0,0
"424",11.7186813354,-13.9378166199,18.2096228008,-0.9230266213,0,0
"425",17.2297706604,-16.8832416534,24.4869649037,-0.6618932486,0,0
"426",12.3780593872,-12.4142847061,17.5756213495,-0.7940585017,0,0
"427",4.7343549728,-6.2864770889,7.9043765053,-1.8471181393,0,0
"428",2.2751188278,-4.7017226219,5.3780849387,-2.498352766,0,0
"429",4.5559258461,-3.8833744526,7.1152022071,-2.3331460953,0,0
"430",8.7265529633,-2.9409341812,11.7538634097,-2.1860587597,0,0
"431",12.8640985489,-4.258644104,15.5371004135,-2.1700706482,0,0
"432",13.036989212,-3.2855176926,14.295735098,-2.3459362984,0,0
"433",8.6982622147,-2.8214826584,9.1481902287,-2.3096973896,0,0
"434",6.4834675789,-2.5197103024,7.1226058418,-2.1114492416,0,0
"435",6.0688300133,-2.349514246,6.5097471661,-1.8545793295,0,0
"436",6.9440598488,-2.3700215816,7.7398132317,-1.7767721415,0,0
"437",9.3220148087,-2.018851757,10.8265494209,-1.7362699509,0,0
"438",10.2327213287,-0.0420625322,12.5163327135,-1.6925702095,0,0
"439",9.1666374207,-0.0007484436,11.4117194453,-1.6104997396,0,0
"440",7.5229058266,-2.0719912052,9.0496098893,-1.3973296881,0,0
"441",6.7400341034,-3.1403195858,8.0986124993,-1.3770785332,0,0
"442",6.5789690018,-2.670746088,7.7078335437,-1.4058566093,0,0
"443",9.0392532349,-1.7498611212,9.7066799169,-1.4229102135,0,0
"444",11.7049093246,-0.8520281911,12.1170936842,-1.3365761042,0,0
"445",11.4603185654,-0.5902225971,11.9048100599,-1.2385179996,0,0
"446",10.0728530884,-1.3274395466,10.5733749115,-1.1415256262,0,0
"447",8.6732635498,-1.7269587517,9.1854565482,-1.2108058929,0,0
"448",8.3451461792,-1.0350974798,8.6886350041,-1.2459790707,0,0
"449",10.1649122238,0.2986289859,10.7051980343,-1.1436572075,0,0
"450",10.1322793961,1.2687616348,10.776033682,-1.1436572075,0,0
"451",10.050699234,1.7497115135,10.5027077226,-1.1596449614,3,0
"452",9.0120096207,0.5022056699,9.1427239511,-1.1106162071,3,0
"453",8.406668663,-1.4004876614,8.5639299744,-0.9688580036,3,0
"454",8.1899185181,-0.8222401142,8.5459823003,-0.8313634992,3,0
"455",8.4903440475,1.4793735743,9.2651408231,-0.9134339094,3,0
"456",9.566157341,1.6122971773,10.045102451,-1.0669161081,3,0
"457",9.3835372925,0.7641609311,9.6441760579,-0.8921166062,3,0
"458",9.620344162,0.5140310526,9.9712756554,-0.7535563707,3,0
"459",9.5760364532,0.8357121348,10.0132579655,-0.7386344075,3,0
"460",9.8408355713,1.8491047621,10.395342635,-0.8569434285,3,0
"461",10.2485876083,1.7814455032,10.756441892,-0.7812684178,3,0
"462",10.5853872299,1.7736616135,11.1173865166,-0.7599516511,3,0
"463",12.6247463226,3.2286360264,13.6921763335,-0.7365027666,3,0
"464",13.3245410919,3.7634737492,14.6579073557,-0.5766252279,3,0
"465",13.5719766617,3.5335519314,15.0058160315,-0.5766252279,3,0
"466",15.7719516754,1.4982343912,16.7852703372,-0.634180963,3,1
"467",16.7308578491,1.3585748672,16.8859312468,-0.1204414591,3,0
"468",14.4123296738,1.4206956625,14.5179201084,0.8089799285,3,0
"469",12.171040535,0.5605842471,12.2417905119,1.6179600954,3,0
"470",10.6334381104,0.7869136333,10.7712146881,2.2382845879,3,0
"471",9.88484478,0.4453239441,10.2064175631,2.7275099754,3,0
"472",9.2336988449,-0.0269439705,9.8463561468,2.9214944839,3,0
"473",9.9484624863,-0.3818559349,10.3096187381,2.98437953,3,0
"474",11.2411737442,0.4086502194,11.4319447852,2.8937823772,3,0
"475",11.6327590942,1.3356724977,11.8114949763,2.734970808,3,0
"476",12.3054609299,2.5933570862,12.7136946245,2.5431177616,3,0
"477",11.6329088211,2.6426045895,12.1664813999,2.262799263,3,0
"478",10.5737113953,0.7262896895,11.0204028867,2.0741438866,3,0
"479",8.9596185684,-1.5588583946,9.8471685377,1.8066154718,3,0
"480",8.4291219711,-4.9039521217,10.3084172345,1.9537026882,3,0
"481",8.278834343,-6.2505517006,10.3782678077,1.993139267,3,0
"482",7.9817018509,-3.5028657913,8.7188331299,1.8023520708,3,0
"483",8.0266084671,-1.1894265413,8.1327519923,1.7948909998,3,0
"484",6.8478097916,-1.1208691597,7.2245304364,1.9579662085,3,0
"485",6.5713348389,-2.5066874027,7.4567537251,1.9899417162,3,0
"486",4.6608576775,-3.8598732948,6.5974755632,1.7405326366,3,0
"487",3.9713914394,-5.4531602859,6.7764250998,1.4335678816,3,0
"488",3.8854701519,-5.4232225418,6.6878171471,1.2321221828,3,0
"489",4.5024871826,-5.5062994957,7.1318465683,1.1553809643,3,1
"490",4.105512619,-6.0721230507,7.4189380497,0.984845221,3,0
"491",3.6747083664,-7.1293745041,8.199276441,0.6341801286,3,0
"492",3.2792308331,-7.6601705551,8.7385366281,0.3272156715,3,0
"493",3.1903157234,-7.5580830574,8.6825367314,0.1694697291,3,0
"494",3.5163376331,-7.9017682076,9.0393688839,-0.0980583876,3,0
"495",3.9067258835,-8.9308776855,10.1382073811,-0.482830584,3,0
"496",3.9058277607,-8.7701120377,10.3531189868,-0.718383193,3,0
"497",4.648733139,-8.6219205856,10.3608474721,-0.8697341084,3,0
"498",9.3486595154,-11.4850168228,16.0015696709,-0.2323554754,3,0
"499",13.3047828674,-12.7926979065,19.677260482,-0.0714121312,3,0
"500",11.0564575195,-12.532538414,18.221901361,-0.16840446,3,0
"501",4.2716670036,-7.4314460754,8.6611138186,-1.2022789717,3,0
"502",4.0929389,-6.0233244896,7.2826845778,-1.4069224596,3,0
"503",5.3066148758,-6.606361866,8.595595505,-1.474070549,3,0
"504",8.3369131088,-7.6227483749,11.8040709117,-1.635013938,3,0
"505",14.3515558243,-7.4094419479,16.5371415541,-1.551877737,3,0
"506",11.6376991272,-4.9611334801,12.8617438062,-1.4133174419,3,0
"507",8.7790937424,-3.6182756424,9.714987465,-1.4207780361,3,0
"508",4.3254051208,-2.825674057,5.5219524281,-1.5113756657,3,0
"509",4.7054648399,-2.722837925,6.0275456413,-1.4900586605,3,0
"510",7.3838453293,-2.4968078136,8.7709283408,-1.3994612694,3,0
"511",8.8986949921,-2.261646986,10.2237816418,-1.3824077845,3,0
"512",11.8775005341,-2.2252724171,12.9127727587,-1.628619194,3,0
"513",10.6284980774,-2.0731887817,11.4613555437,-1.7948914766,3,0
"514",7.7537260056,-2.404150486,8.9369216412,-1.7511916161,3,0
"515",6.3950014114,-2.9315040112,7.9570894984,-1.6158287525,3,0
"516",5.9372534752,-2.6240432262,7.5580628043,-1.4538196325,3,0
"517",7.2741231918,-1.0051597357,8.4973463516,-1.282217741,3,0
"518",9.0088663101,-0.1363664269,9.9404073817,-1.2054764032,3,0
"519",9.1700811386,0.2375559956,9.7235652856,-1.1020892859,3,0
"520",8.2096776962,-0.0525407419,8.7856764311,-1.0711792707,3,0
"521",6.495891571,-1.3036390543,7.8757239115,-1.248110652,3,0
"522",7.4610843658,-1.5664924383,9.0869627068,-1.4772684574,3,0
"523",9.6038789749,-0.6930587888,10.7240756403,-1.1703034639,3,0
"524",11.489657402,-1.4482383728,11.8377867006,-0.7535563707,3,0
"525",12.1879549026,-1.5135025978,12.3035323118,-0.5574398041,3,0
"526",10.1578769684,-1.1615844965,10.2413241257,-0.4913569391,3,0
"527",9.8113470078,-1.1552975178,10.2012333891,-0.3421381712,3,0
"528",9.6745319366,-0.0109272767,11.031039055,-0.1460219175,3,0
"529",8.4927396774,1.3879138231,10.3917582647,-0.2973725498,3,0
"530",8.4135541916,0.4659809768,9.2527770951,-0.6352469921,3,0
"531",8.0779514313,0.4978646934,8.4986274958,-0.8612071872,3,0
"532",8.9925498962,1.1127859354,9.5175755198,-0.7695441246,3,0
"533",9.435628891,0.7943980694,9.8627459632,-0.6480371356,3,0
"534",9.1976232529,0.5673202276,9.3812283998,-0.5585056543,3,0
"535",9.3524017334,1.1090437174,9.4969232496,-0.3474671543,3,0
"536",10.5874834061,1.9094293118,10.8287961017,-0.0607536286,3,0
"537",11.5166015625,2.8848009109,12.299160465,-0.0405026861,3,0
"538",11.814781189,3.4076638222,13.228519518,-0.190787524,3,0
"539",12.2780675888,3.6094441414,13.9820315992,-0.3069652617,3,1
"540",13.3351697922,2.167642355,14.1959300266,-0.2270264924,3,0
"541",13.6849918365,1.5679893494,14.054399251,0.0564899072,3,0
"542",13.625415802,1.1361373663,13.8135173993,0.3996933401,3,0
"543",12.809762001,0.5701643229,12.8668228403,0.715185225,3,0
"544",11.1118431091,0.3397933841,11.1992899397,1.1266031265,3,0
"545",9.8275136948,-0.0362246707,9.8712622413,1.5316259861,3,0
"546",9.2274112701,-0.1954934746,9.2779161008,1.8375250101,3,0
"547",8.9754858017,-0.1972897351,9.0748896653,2.0943949223,3,0
"548",9.1878938675,0.5489085317,9.4125278346,2.2489430904,3,0
"549",9.463470459,-0.0781375095,9.8836377188,2.3907010555,3,0
"550",10.2783756256,-0.2441423088,10.9558168333,2.4717056751,3,0
"551",10.2991828918,0.3490740955,11.0486094018,2.5601713657,3,0
"552",10.1267414093,-0.8786727786,10.832852123,2.6987316608,3,0
"553",11.2718601227,-0.6363267303,11.7586216239,2.5804226398,3,0
"554",10.9063205719,-1.3371692896,11.5053705032,2.2201652527,3,0
"555",9.9545993805,-2.8373496532,10.8075123126,1.8098129034,3,0
"556",9.4326343536,-2.8083100319,10.1798943523,1.6275528669,3,0
"557",9.231303215,-3.3877551556,10.2717263309,1.6755157709,3,0
"558",7.2914872169,-4.1086559296,9.0439507431,1.5412187576,3,0
"559",5.7398138046,-3.7631745338,7.903215512,1.5081773996,3,0
"560",5.3804111481,-3.1778914928,7.2364369826,1.4154485464,3,0
"561",4.8358440399,-3.8978943825,6.7241884444,0.9603305459,3,0
"562",5.1689014435,-4.1388931274,7.0954654989,0.6373780966,3,1
"563",4.357738018,-4.8978147507,6.7974682078,0.4806979001,3,0
"564",4.3523492813,-5.4889354706,7.1200024663,0.2206306458,3,0
"565",5.0211582184,-6.3318328857,8.2974285509,0.0468972027,3,0
"566",5.9773697853,-6.2542939186,9.130459759,-0.0202514753,3,0
"567",5.8688454628,-6.7331485748,9.5042979908,-0.1119145527,3,0
"568",5.4762120247,-6.158343792,9.0496347596,-0.4082207978,3,0
"569",5.3067646027,-5.5889277458,8.5726067142,-0.6171276569,3,0
"570",5.7080798149,-5.8865089417,8.9781478929,-0.805783093,3,0
"571",6.0251207352,-6.0785593987,9.2490060633,-0.9049069881,3,0
"572",7.7704911232,-6.7383875847,11.045366543,-0.8931823969,3,0
"573",10.5594911575,-7.2143974304,14.0037575175,-0.9400801659,3,0
"574",10.8742866516,-7.3218741417,14.8387357896,-0.7759388685,3,0
"575",10.1786832809,-6.4095211029,13.8315541299,-0.4465913475,3,0
"576",9.1063137054,-6.1311001778,12.4765808449,-0.364520967,3,0
"577",8.2686548233,-7.1570668221,11.7068728874,-0.4561843276,3,0
"578",7.9914317131,-6.3200073242,10.7177563087,-0.5030815005,3,0
"579",7.7651023865,-5.284910202,9.9286863001,-0.4849621654,3,0
"580",6.9958519936,-5.0199608803,9.3359689624,-0.5776910186,3,0
"581",7.1009335518,-5.3245773315,9.6496401389,-0.6245882511,3,0
"582",8.8844747543,-4.7711782455,11.3086645885,-0.6117981672,3,0
"583",10.2168540955,-4.8352451324,12.7091204957,-0.6650906801,3,0
"584",9.1124505997,-4.2254133224,11.1079186452,-0.6991980076,3,0
"585",8.0923223495,-4.4722499847,9.876372423,-0.7610174417,3,0
"586",7.6770853996,-4.4472517967,9.3432461912,-0.7876636982,3,0
"587",7.9091029167,-3.4175431728,9.3288316315,-0.7119881511,3,0
"588",8.9218969345,-2.8216323853,10.0985825252,-0.6586956382,3,0
"589",9.0193443298,-1.9676582813,10.0627854585,-0.6437739134,3,0
"590",8.8504953384,-1.1569441557,9.6165671129,-0.6970658898,3,0
"591",8.8422622681,-1.217418313,9.5788800936,-0.7642148733,3,0
"592",9.1985216141,-1.0707234144,10.0203874665,-0.7833999991,3,0
"593",9.3762016296,-1.5205379725,10.334945758,-0.7983219624,3,0
"594",9.4604768753,-1.2193642855,10.1434782978,-0.8633387685,3,0
"595",9.0069198608,-0.6312373281,9.4505702578,-0.7791367769,3,0
"596",9.2368421555,-0.2317181379,9.8815011945,-0.6533666253,3,0
"597",9.9451684952,-0.4293072522,10.6699349244,-0.6363127828,3,0
"598",10.0750989914,-0.2671943605,10.7501298764,-0.6896052957,3,0
"599",8.9079761505,-1.0575507879,9.644632505,-0.5382546782,3,0
"600",8.6777544022,-1.2859758139,9.7047355654,-0.4295380712,3,0
"601",9.1429872513,-1.4766792059,10.1803878578,-0.3474671543,3,0
"602",10.3628005981,-1.6444802284,11.034412309,-0.3922330141,3,0
"603",10.4099521637,-0.8303233385,10.9089768288,-0.3538624644,3,0
"604",10.1306333542,-0.6216572523,10.7119549714,-0.2621994019,3,0
"605",10.3126544952,-0.9698331952,10.8892795164,-0.0873998851,3,0
"606",10.1987419128,-2.338886261,11.0101656324,-0.0213172734,3,0
"607",9.3583889008,-2.3941214085,10.5918136222,-0.1065850332,3,0
"608",8.6114425659,-1.6893868446,9.8675412366,-0.1598775536,3,0
"609",8.3202981949,-0.9096583724,9.9330150152,-0.1641412675,3,1
"610",11.0470275879,-1.9254460335,12.4338747808,-0.114046149,3,0
"611",11.8081951141,-2.7331664562,12.9598820161,-0.1289681047,3,0
"612",10.5377864838,-2.197729826,11.0436689373,-0.0532925166,3,0
"613",9.1985216141,-1.8226099014,9.6205271447,0.3101618588,3,0
"614",8.9373149872,-1.9553837776,9.6648823198,0.6011391282,3,0
"615",9.0747289658,-3.0617330074,11.1054893598,0.8175065517,3,0
"616",8.8654642105,-3.3275802135,10.6517743419,1.05838871,3,0
"617",7.7859091759,-1.5658936501,9.2468120133,1.1138128042,3,0
"618",6.4924488068,-0.3201841712,7.9637104929,0.9027748704,3,0
"619",6.3096790314,-1.3036390543,7.7916237189,0.6043365002,3,0
"620",7.802075386,-2.2333557606,9.7820603885,0.593678236,3,0
"621",7.8155474663,-0.2577639818,9.4991326187,0.4199442863,3,0
"622",6.957531929,-0.1595681757,8.6392072787,0.3346765339,3,0
"623",6.4994840622,-1.2072395086,8.1765814042,0.3005694151,3,0
"624",7.3551049232,-1.4879058599,8.6473479511,0.2334210128,3,0
"625",6.7553024292,-0.6442602277,7.9781696968,0.0820703655,3,0
"626",6.3801822662,-0.4644840956,7.4348675854,-0.0117248334,3,0
"627",8.1427669525,-0.6158193946,9.2771681727,-0.0031979238,3,0
"628",9.344168663,-1.2278965712,11.257188323,-0.0170538183,3,0
"629",9.774523735,-0.6968010068,11.6558860742,-0.086334087,3,0
"630",9.0591611862,-1.2849279642,9.9869746255,-0.1918533295,3,0
"631",9.8899335861,-2.1345610619,10.7062399237,-0.0053295181,3,0
"632",11.4210996628,-1.0783575773,12.5833415522,0.2387499958,3,0
"633",10.9910440445,-0.9234297276,12.0502260052,0.316557169,3,0
"634",9.8282623291,-1.0632389784,11.4980639611,0.7407651544,3,0
"635",6.6723747253,-0.9743238688,8.9442377902,1.0466643572,3,0
"636",5.8255858421,0.7363188267,8.3929483333,0.6448389292,3,0
"637",8.2879648209,-0.2945874035,10.0747863444,0.0511603914,3,0
"638",11.363319397,-1.0898835659,12.6453439701,-0.2270264924,3,0
"639",10.8245897293,-1.2383748293,11.3921942238,-0.031975776,3,0
"640",7.4215669632,0.2868036032,8.5761289515,0.2952401638,3,0
"641",7.0250415802,-0.8029302955,8.7365008174,0.0383702926,3,0
"642",8.5104026794,-1.5964301825,10.1093214172,-0.1374950111,3,0
"643",9.6448936462,-0.6738986373,10.7981161241,-0.031975776,3,0
"644",9.9478635788,-0.5578898787,10.9452814814,0.1151114106,3,0
"645",10.4861440659,-0.6057902575,11.5715870384,0.0522261858,3,0
"646",9.3778486252,-0.2820135355,10.8640341006,0.0149214249,3,0
"647",8.3936452866,-0.6423143148,9.4920576927,-0.0021321268,3,0
"648",8.8061876297,-0.52196455,9.3022223986,0.0255799294,3,0
"649",9.0468864441,0.5466632247,9.5819078353,0.1694697291,3,0
"650",10.213561058,-0.1902543604,11.082685944,0.4508542717,3,0
"651",9.9281044006,-0.4561015368,11.2781470937,0.5531755686,3,0
"652",7.0373158455,-0.2014810145,9.5070449406,0.4156810939,3,0
"653",6.6960253716,-0.5653743148,8.8034924946,0.0628849566,3,0
"654",8.3665513992,-0.7065307498,9.8271557644,-0.0746097863,3,0
"655",9.3395280838,-0.6218069196,10.2917790169,0.089531213,3,0
"656",9.0256309509,-0.4873864651,9.8403515959,0.3410718441,3,0
"657",8.6377878189,-0.7652087212,9.5861981519,0.3815740049,3,0
"658",9.050330162,0.1796264648,10.4190331378,0.3112276495,3,0
"659",9.3621311188,-0.2157014459,10.6333273175,0.2025110275,3,0
"660",9.1491241455,-1.1711645126,10.4398519641,0.1012555137,3,0
"661",9.3143806458,-1.2295432091,10.5197510015,-0.0042637209,3,0
"662",9.8617925644,-0.419128418,11.0679059802,-0.050095126,3,0
"663",9.7721290588,-0.1939965785,10.9937056826,-0.0788729787,3,0
"664",9.1875944138,-0.7565267682,9.9703134489,-0.0415684842,3,0
"665",9.390422821,-0.9880952239,10.0805252411,0.0010657971,3,0
"666",9.1244258881,-0.7764353752,9.840933842,0.0682139397,3,0
"667",8.4948348999,-0.1508862376,9.9350298805,-0.0266462583,3,0
"668",7.9086537361,-0.5763015747,9.6817546912,-0.1247046515,3,0
"669",7.9144916534,-1.16038692,9.5524410623,-0.1428239942,3,0
"670",8.1539936066,-0.8622070551,9.1127504668,0.0085263764,3,0
"671",8.657995224,-0.2309696972,9.2554198187,0.0468972027,3,0
"672",8.4737291336,-0.1919009387,8.9011417128,0.0415676832,3,0
"673",9.9861831665,-1.1343411207,10.6253364061,-0.0714121312,3,0
"674",10.3003807068,-0.6725513935,11.4958495238,-0.1556143612,3,0
"675",9.8912811279,0.0176632684,11.2686206575,-0.0842024982,3,0
"676",9.2848920822,0.0100291446,10.1841054304,0.0330410413,3,0
"677",9.1326589584,-0.2062710524,9.8185433408,0.0468972027,3,0
"678",9.4115285873,-0.0467028804,10.1563431486,-0.0063953148,3,0
"679",9.9008607864,0.8869056702,10.9475696532,-0.0969925895,3,0
"680",9.1931324005,0.5240601897,10.4116068847,-0.0607536286,3,0
"681",9.4660148621,0.3782633841,10.5314133629,-0.0426342785,3,0
"682",9.6646518707,-0.2007325739,10.5097578212,-0.0373052955,3,0
"683",9.2724676132,0.1817221045,10.4831422175,-0.0266462583,3,0
"684",8.9680013657,0.3317102194,9.922259466,-0.0884656832,3,0
"685",9.388176918,0.0562829599,10.0493958249,-0.1097829565,3,0
"686",10.1331777573,-0.4894821048,10.5972408518,0.0575557053,3,0
"687",8.9922504425,-0.5239105225,9.8866253761,0.2440795153,3,0
"688",8.2747926712,-0.7119195461,9.5147217571,0.3016352057,3,0
"689",7.7194471359,-1.4251862764,8.9979699282,0.4007591307,3,0
"690",6.9395689964,-1.5519726276,7.9773168852,0.5531755686,3,0
"691",5.9694366455,-1.0098000765,7.0038035822,0.5393199325,3,0
"692",5.598657608,-2.0929477215,7.1508358127,0.316557169,3,0
"693",6.1025099754,-1.6275655031,8.0629717075,0.1556138247,3,0
"694",6.1728634834,-1.1457175016,8.0153346911,0.0170530193,3,0
"695",6.218667984,-1.436113596,7.8000763034,-0.0394368879,3,0
"696",5.962700367,-2.3294558525,7.2961977005,-0.0778071806,3,1
"697",6.572532177,-1.2144246101,7.8885887011,-0.218499586,3,0
"698",10.3021764755,-0.7936496139,11.783239222,-0.3549282551,3,0
"699",13.1522493362,-0.4385879636,15.3695728679,-0.3165577054,3,0
"700",15.6063966751,-0.6634204388,18.3116484044,-0.4327354431,3,0
"701",17.0052375793,0.0052391053,20.4707768259,-0.8580097556,3,0
"702",19.4767475128,0.4146377444,23.113717951,-1.1436572075,3,0
"703",19.5503940582,2.9181816578,20.5171280925,-1.4378318787,3,0
"704",19.5441074371,4.2728643417,20.2323041291,-1.3387076855,3,0
"705",19.5753936768,2.703977108,19.9050603059,-1.1585792303,3,0
"706",16.681760788,0.6201603413,17.160885822,-0.880392313,3,0
"707",12.2678890228,-1.2909154892,13.6483653896,-0.2174337804,3,0
"708",10.0186662674,-1.8422191143,14.1986593984,0.7620824575,3,0
"709",7.7787241936,-1.4407539368,12.9958436631,1.2257273197,3,0
"710",6.5539708138,-1.8001565933,12.2062162228,1.304599762,3,0
"711",3.3280293941,-3.7947587967,9.2863496584,1.2790198326,3,0
"712",4.3662700653,-3.6199223995,7.5241909264,1.2875465155,3,0
"713",6.152056694,-2.6343717575,7.739866954,1.3898681402,3,0
"714",7.5947566032,-2.1411473751,8.6035632891,1.5124409199,3,0
"715",10.878777504,-1.2388238907,11.2861892159,2.0069952011,3,0
"716",10.8483905792,-1.3214520216,11.1448379405,2.2894456387,3,0
"717",10.5657787323,-1.5000306368,10.7853274389,2.462113142,3,0
"718",9.1533155441,-1.3558803797,9.2732577351,2.8447532654,3,0
"719",7.7240877151,-3.3781750202,8.478491104,2.8575434685,3,0
"720",9.1179885864,-3.9170544147,10.1470334533,2.7584195137,3,0
"721",9.7399454117,-3.3721876144,10.6894797114,2.8063828945,3,0
"722",9.3396778107,-2.8497738838,10.1409970349,2.8202385902,3,0
"723",9.0735311508,-3.3988320827,9.9758306248,2.9961042404,3,0
"724",10.4952745438,-3.2257919312,11.3650851793,2.995038271,3,0
"725",10.3696861267,-3.9972875118,11.9963907536,3.0568575859,3,0
"726",6.7898802757,-6.4346690178,10.7549611554,3.3169250488,3,0
"727",4.8424301147,-5.3197875023,8.3471887482,2.7765388489,3,0
"728",4.8767089844,-4.2382864952,8.2561215895,2.2745234966,3,0
"729",0.5611830354,-4.1803569794,4.4755483281,2.9172310829,3,0
"730",3.0268557072,-5.0109796524,5.8617456142,2.7957241535,3,0
"731",4.0246806145,-6.3685064316,7.5531154445,2.5441834927,3,0
"732",2.739153862,-6.4469432831,7.080279092,2.3661866188,3,0
"733",2.5592279434,-5.6348819733,6.5369903307,2.256403923,3,0
"734",0.6774911284,-5.3166441917,5.5632963146,1.8972127438,3,0
"735",0.003293152,-5.6793398857,6.1135957387,1.3866707087,3,0
"736",0.5706133842,-6.3330302238,6.6083842227,1.1266031265,3,0
"737",1.4293775558,-6.9298391342,7.1121203812,0.944342792,3,1
"738",1.7700691223,-7.2109546661,7.5522305459,0.6373780966,3,0
"739",1.3663586378,-7.4797954559,7.8644163674,0.1971820444,3,0
"740",1.2106823921,-7.5281453133,7.80531139,-0.0511609241,3,0
"741",2.1737794876,-8.4211883545,8.9042970892,-0.3911672235,3,0
"742",2.9723689556,-8.0281057358,8.7581822966,-0.7045270205,3,0
"743",2.0058288574,-8.8826780319,9.3742105787,-0.9304874539,3,0
"744",1.4028826952,-8.9048318863,9.2910232207,-1.1585792303,3,0
"745",1.1987072229,-7.997718811,8.3185815578,-1.2800861597,3,0
"746",3.6880307198,-10.3674411774,11.8990581749,-0.6245882511,3,0
"747",6.4482908249,-8.9109697342,12.0943410961,-0.5755594373,3,0
"748",7.143445015,-9.0874528885,12.5408086304,-0.6906711459,3,0
"749",4.0091128349,-10.7406148911,12.2300838579,-0.6256545782,3,0
"750",5.0031957626,-11.6130008698,14.020283855,-0.3751792014,3,0
"751",6.4634094238,-9.088350296,12.7189497499,-0.0341073722,3,0
"752",5.2895503044,-7.9433817863,10.8639435084,-0.0607536286,3,0
"753",3.0617330074,-8.1373786926,9.3686835818,-0.2078410834,3,0
"754",2.7895989418,-9.1840019226,10.240865964,-0.2216969728,3,0
"755",4.1224274635,-9.673034668,11.3380654124,-0.1449561268,3,0
"756",7.7034306526,-8.5674343109,12.2222498884,0.19505018,3,0
"757",6.7654809952,-8.1894702911,11.443660557,0.316557169,3,0
"758",3.072810173,-8.5389928818,9.59536978,0.2909767032,3,0
"759",2.1766235828,-9.6695919037,10.403205495,0.281384021,3,0
"760",2.6509871483,-9.8450269699,10.6461377085,0.2366183996,3,0
"761",3.3093183041,-9.5631637573,10.9002980603,0.1513501108,3,0
"762",3.9234910011,-9.1386461258,10.8281693891,-0.0447661392,3,0
"763",4.2049059868,-10.246342659,11.607101608,-0.1598775536,3,0
"764",3.5432817936,-9.9322957993,10.8754770459,-0.2771216333,3,0
"765",3.6989579201,-9.652677536,10.7057214859,-0.3325457275,3,0
"766",4.3812389374,-9.0573654175,10.4321384936,-0.3421381712,3,0
"767",4.4930567741,-8.7478084564,10.1431687843,-0.405023396,3,0
"768",4.5214977264,-8.4120569229,9.7282644721,-0.3559940755,3,0
"769",5.1042356491,-8.2785348892,9.9035355853,-0.3101626635,3,0
"770",5.0383725166,-7.9194316864,9.6022799963,-0.2302238792,3,0
"771",5.3940329552,-8.4388513565,10.1829269536,-0.1289681047,3,0
"772",4.8912286758,-8.435708046,9.9869883763,-0.0266462583,3,0
"773",5.6151232719,-8.5701284409,10.4560502639,0.0575557053,3,0
"774",5.2801198959,-8.042924881,9.8933734179,0.0436992794,3,0
"775",5.0533413887,-8.4348096848,10.242833307,0.0351726338,3,0
"776",5.0455574989,-8.7127819061,10.6064071437,-0.0213172734,3,0
"777",5.4985156059,-7.9731698036,10.1852463178,-0.0468977354,3,0
"778",5.024002552,-7.8778181076,9.7979574138,0.023448335,3,0
"779",5.238656044,-9.0542221069,10.8459765872,0.0842019618,3,0
"780",5.3121533394,-9.1356525421,10.9686595772,0.015987223,3,0
"781",5.4320540428,-9.4041938782,11.1501899737,-0.1257707179,3,0
"782",5.3167934418,-9.6113634109,11.2109507704,-0.1843922138,3,0
"783",5.9841060638,-9.7402448654,11.7801348009,-0.0287783854,3,0
"784",8.1792907715,-8.3048801422,11.9433336634,0.353861928,3,0
"785",6.9069371223,-8.6689224243,11.3928699348,0.4615127742,3,0
"786",3.1430139542,-8.0649290085,8.8039782288,0.2909767032,3,0
"787",0.7333250642,-7.8989238739,7.9339649408,-0.1918533295,3,0
"788",1.9341279268,-7.6788816452,7.9767803345,-0.3144261241,3,0
"789",4.3758502007,-7.3049592972,8.5579639309,-0.2526069582,3,0
"790",5.5970110893,-8.2466506958,10.0765555646,-0.250475347,3,0
"791",4.2420287132,-8.1560897827,9.2676092021,-0.5904814005,3,0
"792",2.9518616199,-6.9768414497,7.6151687529,-0.7013296485,3,0
"793",6.1781024933,-7.7308235168,10.0158040095,-0.181194827,3,0
"794",7.5745487213,-9.5814256668,12.5682511711,0.0426334813,3,0
"795",6.7291069031,-12.1008358002,15.5288914323,0.3591911793,3,0
"796",5.0334329605,-10.2253866196,13.7397622576,0.2643304467,3,0
"797",4.8012657166,-8.6523075104,11.121414807,-0.0639515519,3,0
"798",4.8353948593,-8.2797317505,9.7397289462,-0.3314799368,3,0
"799",4.0769219398,-6.4467940331,7.6851383707,-0.4284717143,3,0
"800",3.2506401539,-6.6060624123,7.4507425847,-0.4188793004,3,0
"801",3.6196229458,-6.4063777924,7.362385452,-0.2984383702,3,0
"802",3.5521132946,-6.7803001404,7.6681465987,-0.2163679898,3,0
"803",4.3312430382,-6.7466201782,8.0361469939,-0.1758655757,3,0
"804",6.7193770409,-8.1806383133,10.827876629,0.2195648551,3,0
"805",6.0908341408,-8.7087402344,11.1605418095,0.5670319796,3,0
"806",4.1846981049,-9.2116937637,10.6022659327,0.7972556353,3,0
"807",3.024610281,-10.2165546417,11.1075013803,1.017886281,3,0
"808",1.6281641722,-10.3924388885,10.6535737825,0.8153749704,3,0
"809",2.9380903244,-12.2095098495,12.6551112287,0.5776902437,3,0
"810",3.7818856239,-14.4487037659,15.1989818232,0.5403857231,3,0
"811",4.6566662788,-15.6297473907,16.9913164288,0.1694697291,3,0
"812",5.4733681679,-18.0800018311,19.4182418163,-0.5318593979,3,0
"813",6.8290987015,-16.6398468018,18.556041069,-1.248110652,3,0
"814",5.935008049,-15.2607650757,17.0210934093,-1.8130110502,3,0
"815",5.7803797722,-13.2200584412,14.9224164455,-2.2979729176,3,0
"816",6.1403808594,-10.6892719269,12.4515038252,-2.5910816193,3,0
"817",7.6483449936,-7.4160284996,10.7355110645,-2.7573542595,3,0
"818",8.6129388809,-5.83456707,10.4766025528,-2.6624934673,3,0
"819",10.1708993912,-4.1637415886,10.9949166083,-2.5516452789,3,0
"820",10.6738538742,-3.454366684,11.3230309128,-2.3512654305,3,0
"821",10.1429080963,-3.0814919472,10.9304308908,-1.996337533,3,0
"822",9.3296489716,-2.9541068077,10.195006431,-1.9835468531,3,0
"823",8.3421525955,-3.7206628323,9.5564891399,-2.2510752678,3,0
"824",7.4583902359,-2.4587869644,8.1030135589,-2.299038887,3,0
"825",7.0251908302,-1.7137861252,7.4752110582,-2.2105731964,3,0
"826",7.864795208,-1.2090357542,8.2136572082,-1.8311303854,3,0
"827",8.6512594223,-1.7820441723,9.2439683374,-1.760784626,3,0
"828",9.1531658173,-1.861079812,9.9320698423,-1.9089375734,3,0
"829",7.795788765,-1.8202148676,8.7028440365,-1.9654275179,3,0
"830",5.8698935509,-1.2213102579,6.5708141158,-1.797023654,3,0
"831",4.8455734253,-1.0421328545,5.4471892922,-1.5412194729,3,0
"832",5.6808366776,-1.562151432,6.3216214893,-1.4772684574,3,0
"833",8.1432161331,-1.6447796822,8.4848650656,-1.5028489828,3,0
"834",11.0537633896,-1.6655863523,11.38948629,-1.4271733761,3,0
"835",9.5669059753,-1.4304254055,9.7836271572,-1.1234060526,3,0
"836",8.0251121521,-0.7057822943,8.3050163828,-0.8931823969,3,0
"837",8.1596822739,-1.4947915077,8.5696652915,-0.6320493817,3,0
"838",8.4406471252,-1.6715739965,8.9049581026,-0.5180032253,3,0
"839",9.2040596008,-0.0919088721,9.522684019,-0.4593816996,3,0
"840",9.7856006622,0.6837780476,10.1723370191,-0.3858382404,3,0
"841",9.3309965134,1.2799882889,10.014514689,-0.3837061226,3,0
"842",9.6130094528,0.5845344663,10.3812097557,-0.4284717143,3,0
"843",10.2357149124,-0.8196954131,10.6933238798,-0.4902911484,3,0
"844",10.5473670959,-0.2668949962,10.6567368382,-0.4743036628,3,0
"845",8.6621866226,1.0584489107,8.9278217546,-0.3421381712,3,0
"846",9.1720266342,0.0477507003,9.4961150407,-0.4146161079,3,0
"847",9.7487773895,0.1305285692,10.1156294046,-0.4657770097,3,0
"848",9.652677536,0.7289840579,10.0186715335,-0.3751792014,3,0
"849",9.4362268448,0.1962419152,9.6467570336,-0.3400065899,3,0
"850",9.7924861908,0.2821632326,9.9827923543,-0.3218872249,3,0
"851",9.233549118,0.11346405,9.4975699278,-0.3357431293,3,0
"852",8.4460363388,1.6012202501,8.9018222444,-0.448723197,3,0
"853",9.1807088852,1.4039305449,9.605445716,-0.4934890866,3,0
"854",10.5728139877,1.0337502956,10.8376004154,-0.3954306841,3,0
"855",9.9861831665,2.1427941322,10.5371167965,-0.3122942448,3,0
"856",10.4059104919,1.2578343153,10.5809883063,-0.4114187062,3,0
"857",10.7560329437,1.1991562843,10.8692071328,-0.3837061226,3,0
"858",11.5688428879,0.6795867682,11.6501854878,-0.3165577054,3,0
"859",12.2015762329,0.7599696517,12.6639227321,-0.2952409685,3,0
"860",12.1089191437,0.912951529,12.7262507635,-0.1694702506,3,0
"861",12.4300012589,1.4691947699,13.1939409626,-0.0618194267,3,0
"862",17.025894165,3.3898508549,17.8880328703,-0.1097829565,3,0
"863",16.4310321808,3.1696586609,16.9356089307,-0.0724781975,3,0
"864",15.1300868988,2.8333082199,15.4972270823,0.1513501108,3,0
"865",12.7618618011,0.4387376308,12.8036489292,0.8356261849,3,0
"866",11.3154191971,-0.718056798,11.5143422793,1.5145725012,3,0
"867",9.684261322,-0.0871188343,10.1403669374,1.467675209,3,0
"868",8.9617137909,0.9319619536,9.7510668831,1.2246615887,3,0
"869",8.3704433441,0.5788462758,9.1474045872,1.0221500397,3,0
"870",8.5127973557,0.870439887,9.088533039,1.0498620272,3,0
"871",9.1151447296,0.7981402874,9.4865362228,1.2172003984,3,0
"872",9.6651010513,0.0969982892,9.887410538,1.422909379,3,0
"873",10.5237159729,-0.9175918698,10.622360081,1.7000304461,3,0
"874",11.1384878159,-0.4243675172,11.21029506,1.8801590204,3,0
"875",11.1455230713,1.2531939745,11.3453700903,1.8865542412,3,0
"876",10.4065093994,2.0703446865,10.7785166938,2.0506949425,3,0
"877",10.1132698059,1.1464658976,10.4407814944,2.4365327358,3,0
"878",10.4900360107,-0.2001338154,10.9217855862,2.9587993622,3,0
"879",10.6223602295,-2.9633874893,11.7575996658,3.2977392673,3,0
"880",10.7665109634,-3.9562728405,12.068335194,3.1666400433,3,0
"881",10.5520067215,-4.0486307144,11.6533435133,2.8213043213,3,0
"882",9.3390789032,-4.2607398033,10.6720401422,2.4908909798,3,0
"883",8.5806064606,-4.0734791756,10.2458219619,2.3182234764,3,0
"884",7.8053684235,-4.246070385,10.0756598245,2.3928329945,3,0
"885",7.367978096,-4.2264609337,9.8818798967,2.2329554558,3,0
"886",6.3488974571,-4.5402088165,8.7265651228,1.9888756275,3,0
"887",6.1084971428,-4.4249482155,7.8907054935,1.7757058144,3,0
"888",5.2108139992,-5.9769210815,8.019923673,1.7661130428,3,0
"889",3.8504428864,-6.7371897697,7.7871074155,1.8353933096,3,0
"890",4.5029358864,-6.1318488121,7.6234739684,1.8726980686,3,0
"891",5.6031479836,-6.3900618553,8.4988366621,1.6840426922,3,0
"892",4.1677832603,-6.1867847443,7.4602881344,1.3951973915,3,0
"893",3.4795143604,-6.7234187126,7.5740334074,1.2257273197,3,0
"894",3.6547996998,-6.679110527,7.6888265318,1.06478405,3,0
"895",2.5372238159,-6.9482512474,7.4852786225,0.8420212269,3,0
"896",1.4865586758,-7.0585718155,7.2175868034,0.6117976308,3,0
"897",0.7126680017,-7.5083861351,7.6133195809,0.1396260709,3,0
"898",1.8134788275,-8.4674415588,8.6891196957,-0.4316696525,3,0
"899",2.5087828636,-7.7700419426,8.1840361045,-0.7162516117,3,0
"900",1.9389179945,-6.3069844246,6.6627615299,-0.8185731769,3,0
"901",1.7077986002,-6.8208661079,7.0963167765,-1.0701135397,3,0
"902",1.6139438152,-7.0527338982,7.4586041222,-1.1319329739,3,0
"903",2.9560527802,-8.3949928284,9.2475083578,-1.1617765427,3,0
"904",4.1165895462,-8.5972223282,10.0502271029,-1.1745669842,3,0
"905",4.8820977211,-8.4437913895,10.1542756494,-1.1660403013,3,0
"906",4.8841934204,-8.3722400665,10.1297174461,-0.991240561,3,0
"907",3.4531691074,-9.6921949387,10.8987245146,-0.8846555352,3,0
"908",3.3928444386,-10.9350605011,12.0762936486,-0.9933726788,3,0
"909",4.3152265549,-12.3762636185,13.5433602707,-1.3717492819,3,0
"910",5.421875,-10.7650136948,12.9235599623,-1.3141936064,3,0
"911",5.5718631744,-10.2306251526,12.2640648888,-1.2896789312,3,0
"912",4.7870454788,-11.6703310013,13.2691304997,-1.7160190344,3,0
"913",8.7379293442,-16.1204280853,19.4059976018,-1.5550756454,3,0
"914",16.4192066193,-19.5212059021,26.7783452243,-0.7119881511,3,0
"915",15.2266359329,-11.1622877121,21.0636344627,-1.2918105125,3,0
"916",1.7579443455,-3.6944673061,4.1003392893,-2.6273202896,3,0
"917",0.7674540877,-3.5296599865,3.612136379,-2.7339053154,3,0
"918",2.0454964638,-2.1710851192,3.4669429437,-2.8394246101,3,0
"919",5.866001606,-0.4622387588,6.3616591342,-2.5793573856,3,0
"920",11.4764842987,-3.0503568649,11.9947046676,-1.919596076,3,0
"921",17.5426197052,-2.1528232098,17.6742389693,-2.2127048969,3,0
"922",10.7379207611,-2.0197498798,11.121533829,-1.8311303854,3,0
"923",7.2473292351,-2.5750951767,7.9454234068,-1.5593389273,3,0
"924",4.2709183693,-2.1017792225,4.8894642193,-1.3205883503,3,0
"925",6.0719733238,-0.4363426268,7.4487975411,-1.2609010935,3,0
"926",6.6192350388,-0.0550854504,8.5086334365,-1.2310568094,3,0
"927",11.6541652679,1.1181747913,13.8287214075,-1.1372624636,3,0
"928",11.5555200577,1.2078382969,13.4823911761,-0.9486070871,3,0
"929",8.9280338287,-0.3996688724,10.0852309614,-0.8622729778,3,0
"930",7.8776683807,-2.0574715137,8.6131705279,-0.8676024675,3,0
"931",7.8676390648,-1.0832972527,8.2260204111,-0.7439636588,3,0
"932",8.4415454865,-0.5945636034,8.7272238622,-0.6938685179,3,0
"933",9.8399381638,1.0386900902,10.2336567168,-0.6714859605,3,0
"934",10.5963144302,1.5111076832,11.043201575,-0.4242085516,3,0
"935",10.5097951889,-0.2600093186,10.9607227655,-0.2920430303,3,0
"936",9.9043035507,-1.1503578424,10.5840058201,-0.405023396,3,0
"937",9.1352033615,-0.9554631114,9.7433304105,-0.6022056937,3,0
"938",9.0525751114,-0.6123765707,9.6094468525,-0.6554982066,3,0
"939",10.0355806351,0.6460565329,10.6041723425,-0.7055928111,3,0
"940",9.5535831451,0.0079335021,10.1905385734,-0.8068488836,3,0
"941",9.5234956741,-0.4604425132,10.1241646881,-0.8409562111,3,0
"942",8.8088817596,-0.9225316048,9.4222592201,-0.8388240933,3,0
"943",10.5094957352,-1.8088384867,10.8191603064,-0.8079146743,3,0
"944",10.5996084213,-1.1916718483,10.7023807907,-0.6022056937,3,0
"945",9.5167598724,-0.5912704468,9.6910657658,-0.2142358571,3,0
"946",10.4991664886,0.1058299243,10.7827982358,0.030909447,3,0
"947",11.1160345078,0.7668552995,11.4855474795,0.0543583147,3,0
"948",10.6198158264,0.1987866163,11.0562657608,0.2494084984,3,0
"949",10.4553079605,-0.2448907495,10.9509170636,0.417812705,3,0
"950",9.6062736511,0.7973918319,10.425309972,0.629916966,3,0
"951",8.8320837021,2.4186704159,10.2558960123,0.8089799285,3,0
"952",10.0688114166,2.6527833939,12.0746768505,0.9198281169,3,0
"953",12.3690786362,1.5444881916,13.564332056,0.8185723424,3,0
"954",12.5858278275,0.0315843187,12.6315713531,0.7130531073,3,0
"955",12.0213518143,0.7222480774,12.2107263158,0.8910502791,3,0
"956",11.5059728622,-0.0805325285,11.6781634405,1.3109951019,3,0
"957",10.3744764328,-1.8818866014,10.5618076436,1.7842324972,3,0
"958",10.3101100922,-3.3066239357,10.8352182558,2.2958402634,3,0
"959",10.3518733978,-2.5448579788,10.7437431402,2.5186030865,3,0
"960",9.9236135483,-2.5950036049,10.3994569343,2.4738376141,3,0
"961",8.5943775177,-3.3555719852,9.4160433763,2.3480670452,3,0
"962",8.5695295334,-4.2894802094,10.2402345613,2.2436141968,3,0
"963",8.8974971771,-4.2858872414,10.7271176255,2.0975925922,3,0
"964",9.0196437836,-2.4436683655,10.1485457558,1.466609478,3,0
"965",8.7729568481,-1.8589842319,9.6340946975,1.1948174238,3,0
"966",8.6575469971,-2.4644751549,9.5515752482,1.0882322788,3,0
"967",7.7803707123,-4.8503637314,9.7254846918,0.6149950027,3,0
"968",7.5104818344,-5.364095211,9.7502746543,0.3709155023,3,0
"969",7.4359369278,-5.6384749413,9.7740713474,0.2771208286,3,0
"970",6.6274681091,-5.7685542107,9.0018351062,-0.0309099797,3,0
"971",6.8599348068,-5.069208622,8.9156517331,-0.2611336112,3,0
"972",6.7913770676,-4.3156757355,8.47087763,-0.4359328449,3,0
"973",6.104306221,-4.8557524681,8.2613461241,-0.5990083218,3,0
"974",6.6075596809,-5.6688613892,9.1310505077,-0.8313634992,3,0
"975",7.0030369759,-5.4052596092,9.3033377616,-0.9070385695,3,0
"976",8.3776283264,-3.4476306438,9.1604856517,-0.9294213653,3,0
"977",8.2259941101,-4.1073088646,9.319868002,-0.9432775378,3,0
"978",7.1702394485,-5.1229467392,9.1383289551,-1.0999577045,3,0
"979",7.6217007637,-5.517226696,9.7484927846,-1.2321226597,3,0
"980",8.1599807739,-4.8511118889,9.8307543029,-1.0775746107,3,0
"981",8.5783615112,-5.2670969963,10.1249299224,-0.883589685,3,0
"982",9.3218650818,-5.4613928795,10.8053607634,-0.8196389675,3,0
"983",8.6696710587,-4.840783596,9.9303497886,-0.7780709863,3,0
"984",8.9555768967,-4.2676253319,9.9256997734,-0.7237121463,3,0
"985",13.6131410599,-4.8087501526,14.6503654981,-0.5020157099,3,0
"986",16.9922142029,-5.669011116,18.1648462533,-0.1801290214,3,0
"987",12.537478447,-6.0520648956,14.0166434404,-0.0266462583,3,0
"988",8.3481397629,-4.9232621193,9.7458205435,0.030909447,3,0
"989",6.3084812164,-3.2195050716,7.2395678477,-0.3485329449,3,0
"990",7.5497002602,-1.7777032852,9.0562882806,-1.1276698112,3,0
"991",9.5688514709,-0.5493575931,10.1981351606,-1.2619668245,3,0
"992",11.0802583694,1.1963123083,11.6407646017,-1.483663559,3,0
"993",12.528796196,0.9059161544,13.2083436663,-1.5071121454,3,0
"994",14.0663986206,1.4215937853,15.1077858564,-1.635013938,3,0
"995",9.9534015656,0.0122744748,11.1072413975,-1.2609010935,3,0
"996",8.5313587189,-0.565523982,9.5133075868,-0.9997674227,3,0
"997",4.8253655434,-1.4786251783,5.4751953508,-0.6736175418,3,0
"998",5.2522778511,-1.6169375181,5.8043746761,-0.604337275,3,0
"999",11.49609375,0.0002993775,11.7920668751,-0.6501687169,3,0
"1000",14.3967618942,-0.3490740955,14.5289433443,-0.5553082228,3,0
"1001",13.9333257675,-1.1347901821,14.0475549926,-0.4327354431,3,0
"1002",8.9079761505,-2.4336392879,9.663049964,-0.4306038618,3,0
"1003",8.4650468826,-1.5853532553,9.4578234385,-0.6395102143,3,0
"1004",9.6053752899,-0.9972262383,10.4328672441,-0.7748730779,3,0
"1005",10.1117725372,-1.9031424522,10.62398605,-0.6171276569,3,0
"1006",10.0739011765,-2.197729826,10.5095737952,-0.553176403,3,0
"1007",9.5770845413,-2.0800745487,9.9102613348,-0.3027015328,3,0
"1008",10.4587507248,-1.5599061251,10.8452238901,-0.2163679898,3,0
"1009",10.8510847092,-1.2530442476,11.303348106,-0.1609438807,3,0
"1010",11.1251649857,-0.6701564193,11.4710528065,-0.0213172734,3,0
"1011",9.0305709839,-0.603844285,9.7496392599,0.0842019618,3,0
"1012",8.7790937424,-0.4198768735,9.5700278976,0.1374944746,3,0
"1013",7.375462532,-0.1962419152,8.7997135983,-0.0053295181,3,0
"1014",7.3588471413,-0.6632707119,8.8923222375,-0.1502851099,3,0
"1015",8.5069599152,-0.6653663516,9.2485795864,-0.3240188062,3,0
"1016",9.2516613007,-0.3773652613,9.772347686,-0.2302238792,3,0
"1017",8.7292470932,-0.0419128425,9.1947988984,-0.2600677907,3,0
"1018",8.4017286301,-0.0477507003,8.9062679893,-0.3090968728,3,0
"1019",8.2155160904,-0.2068698108,8.6660986005,-0.3890356421,3,0
"1020",8.9096221924,-0.2399510145,9.5183286036,-0.3069652617,3,0
"1021",9.3338403702,-0.1228944361,10.0772343205,-0.2600677907,3,0
"1022",10.4609966278,-0.1815724224,11.2041781262,-0.3186893165,3,0
"1023",10.7687559128,-0.3320095837,11.4304110545,-0.2558043599,3,0
"1024",9.8330516815,-0.6078858972,10.4651849398,-0.1833264232,3,0
"1025",9.1262216568,-0.5417234898,9.5154710579,-0.1183098629,3,0
"1026",9.5893592834,0.1071771234,9.8140949484,-0.06501735,3,0
"1027",9.7966775894,0.5734574795,10.2239185759,-0.1076513603,3,0
"1028",10.0111818314,-0.0118254088,10.728278282,-0.3506650925,3,0
"1029",10.0514478683,-0.705632627,10.5388174516,-0.4934890866,3,0
"1030",9.7224321365,0.0743952915,10.1663917963,-0.5020157099,3,0
"1031",9.8561038971,0.0580792241,10.3306876046,-0.5009499192,3,0
"1032",9.8102989197,-0.5656736493,10.3135397647,-0.4178134799,3,0
"1033",9.6889019012,-0.693208456,10.4385916316,-0.3357431293,3,0
"1034",9.5920534134,-0.9056167603,10.5151359819,-0.1502851099,3,0
"1035",9.1768169403,-0.8824149966,9.8568783363,0.0916628093,3,0
"1036",9.1390953064,0.0227526855,9.74655834,0.0980575904,3,0
"1037",9.1911869049,0.5637277365,9.8523032192,0.0042631882,3,0
"1038",10.2619104385,0.1784289479,10.8122593847,-0.1119145527,3,0
"1039",10.8368644714,-0.479902029,11.4369710164,-0.158811748,3,0
"1040",9.5211009979,-1.0714718103,9.9509865277,-0.0095932391,3,0
"1041",9.3967094421,-0.0916095003,9.4959499359,0.0937944055,3,0
"1042",9.4760446548,0.8538244367,9.6878272217,0.1140456125,3,0
"1043",9.3381814957,0.4719685316,9.7123452821,0.1833258867,3,0
"1044",9.2607917786,0.044607237,9.6160704571,0.3495987356,3,0
"1045",8.4288225174,-1.0421328545,9.2624757506,0.4252738059,3,0
"1046",8.4160985947,-3.1175670624,10.0171837985,0.5329246521,3,0
"1047",9.0751781464,-1.106349349,9.771300304,0.6192587018,3,0
"1048",9.6282777786,2.9117450714,10.7251935892,0.5595709085,3,0
"1049",8.739276886,1.1552975178,9.6853844086,0.6075338721,3,0
"1050",9.0569162369,-1.4364129305,9.654549557,0.6075338721,3,0
"1051",10.8503370285,-5.9983263016,12.8289980481,1.2523735762,3,0
"1052",8.8028945923,-0.6298901439,9.2906594408,1.3152586222,3,1
"1053",7.8221340179,0.3161425889,8.0582301936,0.7333046198,3,0
"1054",9.8288612366,-0.509540379,10.388695192,0.3293472826,3,0
"1055",12.0045862198,1.2439132929,12.8814787628,-0.6171276569,3,0
"1056",17.3466777802,0.0853225738,18.1004388071,-1.3269836903,3,0
"1057",19.5433597565,3.0308971405,20.7785962239,-1.8108794689,3,0
"1058",19.5438079834,1.3826746941,20.9030536666,-1.9654275179,3,0
"1059",18.9161643982,1.0328521729,20.1017499931,-1.8268672228,3,0
"1060",14.949262619,0.3132984936,15.2461392878,-0.9166312814,3,0
"1061",13.9508390427,-2.4806413651,14.2222555346,-0.1801290214,3,0
"1062",13.6215238571,-4.1360492706,14.250928882,0.7343704104,3,0
"1063",12.6440563202,-3.5715727806,13.1902668297,1.7533229589,3,0
"1064",8.4331626892,-1.8706599474,9.6609783756,2.5495128632,3,0
"1065",7.7134599686,-2.4692652225,9.9062707943,3.2220640182,3,0
"1066",6.6951274872,-1.7751585245,9.1210268333,3.5450165272,3,0
"1067",7.0174074173,-1.9691550732,8.7483157035,3.4117853642,3,0
"1068",9.5432548523,-3.3358130455,10.4678619464,2.8181068897,3,0
"1069",10.810968399,-2.6165587902,11.3819498483,2.5409860611,3,0
"1070",14.409784317,0.3628454506,14.6586521677,2.263864994,3,0
"1071",12.0854187012,-0.0513432324,12.1057800863,2.7488267422,3,0
"1072",10.3883972168,-1.41665411,10.5227654121,3.3723492622,3,0
"1073",9.2842931747,-3.5950739384,10.0610547657,3.6398775578,3,0
"1074",8.2809295654,-5.5318965912,10.0395351907,3.3808758259,3,0
"1075",5.1440529823,-4.9373326302,7.1416362155,3.0483307838,3,0
"1076",3.690874815,-4.0216870308,5.9125052131,3.0024988651,3,0
"1077",3.6732115746,-4.1900868416,6.7575054121,2.9779846668,3,0
"1078",4.8855404854,-6.5490312576,8.8149289511,2.9524040222,3,0
"1079",5.7065830231,-6.396797657,8.8631396495,2.9055068493,3,0
"1080",4.9051494598,-6.7126407623,8.4552998733,2.7733414173,3,0
"1081",2.8090584278,-4.9178733826,5.6738398908,2.6230566502,3,0
"1082",3.1805858612,-5.7877144814,6.6358602506,2.4759693146,3,0
"1083",2.544708252,-6.5854053497,7.0789589633,2.1391606331,3,0
"1084",1.84611094,-6.5907945633,6.9002164834,1.7053594589,3,1
"1085",1.1320958138,-6.8766999245,7.059944163,1.1575129032,3,0
"1086",0.3510200381,-5.4821996689,5.5236818079,0.5382541418,3,0
"1087",0.4968168736,-5.5446200371,5.5674829345,-0.1449561268,3,0
"1088",0.6069877744,-6.6701292992,6.7014880905,-0.7386344075,3,0
"1089",1.1906241179,-7.704179287,7.8023087826,-1.1980158091,3,0
"1090",2.0963904858,-7.9565544128,8.3539578863,-1.4698073864,3,0
"1091",2.3806493282,-7.5767941475,8.0734712931,-1.7106895447,3,0
"1092",2.0510349274,-8.4954338074,8.7482908487,-1.918530345,3,0
"1093",2.1019289494,-8.4226846695,8.7501573821,-2.1370296478,3,0
"1094",2.5271947384,-7.0760850906,7.5645668421,-2.1402270794,3,0
"1095",3.2916550636,-6.0333538055,6.8838643581,-1.9004107714,3,0
"1096",4.1837997437,-6.2176203728,7.5010525283,-1.5710631609,3,0
"1097",10.0363292694,-12.2886953354,15.8666624267,-0.5467815995,3,0
"1098",14.8771133423,-15.0209636688,21.1794771292,-0.0127906296,3,0
"1099",17.3903865814,-11.9397706985,21.5708260646,0.3794423938,3,0
"1100",6.9653153419,-8.4276247025,11.4044057531,0.626719594,3,0
"1101",-0.7235952616,-8.4140033722,8.478545095,0.2877793312,3,0
"1102",0.5722599626,-9.8240709305,9.8891797208,-0.2675283849,0,0
"1103",3.2855176926,-9.8917303085,10.7271087352,-0.6149955392,0,0
"1104",5.6495518684,-7.7764787674,10.3986590768,-0.4210111499,0,0
"1105",6.2668681145,-6.7801504135,9.2713722558,-0.4529863894,0,0
"1106",5.5292019844,-5.8787250519,8.1521299048,-0.7620832324,0,0
"1107",6.2019028664,-10.5029087067,12.2566118108,-0.1854580045,0,0
"1108",7.417974472,-9.9022083282,12.3747028354,0.203576833,0,0
"1109",5.6517968178,-8.0132865906,9.8188689149,0.015987223,0,0
"1110",5.3434381485,-8.7645740509,10.2671384117,-0.0842024982,0,0
"1111",6.4966402054,-8.4840574265,10.7098031031,-0.119375661,0,0
"1112",6.2355828285,-8.1746511459,10.2857166548,0.0468972027,0,0
"1113",5.2530264854,-8.5069599152,10.0845735486,0.1438895315,0,0
"1114",4.863386631,-8.2515907288,9.689059618,0.0021315941,0,0
"1115",5.024002552,-8.3884057999,9.8752750407,-0.0660831481,0,0
"1116",5.1430048943,-8.2774868011,9.8428431502,-0.0085269092,0,0
"1117",5.3555631638,-8.8169651031,10.4334131337,-0.1374950111,0,0
"1118",6.3469514847,-9.3724594116,11.3706173681,-0.181194827,0,0
"1119",7.4145312309,-8.9221963882,11.67383319,-0.1779971719,0,0
"1120",6.5002326965,-8.3563728333,10.6621886231,-0.1502851099,0,0
"1121",5.515879631,-8.4599571228,10.1132914343,-0.1076513603,0,0
"1122",4.6056227684,-8.6511096954,9.8007240339,-0.2046434283,0,0
"1123",5.1497411728,-8.1899185181,9.6884284774,-0.2110384703,0,0
"1124",6.257437706,-8.0316982269,10.2681329877,-0.1609438807,0,0
"1125",6.7241668701,-7.9203295708,10.4529680773,-0.1524169743,0,0
"1126",6.0438318253,-8.0740594864,10.1048209591,-0.1577459574,0,0
"1127",5.6720051765,-8.6762580872,10.3668379333,-0.1428239942,0,0
"1128",5.6604790688,-8.7097883224,10.3936280464,-0.0394368879,0,0
"1129",5.6706576347,-8.3782272339,10.1416673404,-0.0063953148,0,0
"1130",6.1379861832,-8.233628273,10.309642789,-0.0127906296,0,0
"1131",6.4322738647,-8.2888631821,10.5018276259,-0.1108487546,0,0
"1132",6.3520407677,-8.6855382919,10.7625506569,-0.1556143612,0,0
"1133",5.903573513,-9.0751781464,10.8272843908,-0.1705365926,0,0
"1134",5.3612513542,-9.0458393097,10.5885396652,-0.2099726796,0,0
"1135",5.1790800095,-9.3348884583,10.8649828146,-0.2558043599,0,0
"1136",5.5955142975,-11.0789108276,12.5007610852,-0.3101626635,0,0
"1137",5.803132534,-10.3809127808,12.2392032299,-0.4561843276,0,0
"1138",6.4934968948,-11.0823545456,13.0071250757,-0.8004535437,0,0
"1139",7.7176508904,-10.5645809174,13.0876520565,-1.120208621,0,0
"1140",9.9150810242,-11.0452308655,14.8988425605,-1.3632223606,0,0
"1141",11.7754125595,-9.3805427551,15.1044959442,-1.7927598953,0,0
"1142",10.1981430054,-6.4855632782,12.0887810014,-1.8535134792,0,0
"1143",8.6309022903,-4.8301558495,10.0525763251,-1.8460524082,0,0
"1144",7.1218900681,-4.0049219131,8.7387876334,-1.7757062912,0,0
"1145",7.5848770142,-4.7165417671,9.2692275353,-1.9004107714,0,0
"1146",8.2039899826,-4.7550120354,9.5146700375,-1.9302543402,0,0
"1147",9.2013654709,-4.2340950966,10.1356491789,-1.8098137379,0,0
"1148",9.86373806,-2.9840445518,10.307599007,-1.5838534832,0,0
"1149",9.3850336075,-3.5950739384,10.0818662811,-1.3781446218,0,0
"1150",8.2972459793,-3.6934194565,9.3256382783,-1.3173909187,0,0
"1151",7.6222991943,-3.1269974709,8.9977024113,-1.2800861597,0,0
"1152",7.1865553856,-2.7093658447,8.902711828,-1.3419055939,0,0
"1153",6.714138031,-2.9344975948,9.0332193834,-1.4666099548,0,0
"1154",7.9236226082,-4.2093963623,10.1786689161,-1.5870509148,0,0
"1155",8.6981124878,-3.6625835896,10.0691051721,-1.7447968721,0,0
"1156",8.8882169724,-4.7689328194,10.2345099287,-1.742664814,0,0
"1157",8.9290819168,-5.152135849,10.3782170835,-1.5369558334,0,0
"1158",8.9245910645,-3.5789077282,9.664673523,-1.4239759445,0,0
"1159",7.6942996979,-2.7086174488,8.2796726092,-1.2928762436,0,0
"1160",7.5098829269,-2.5890161991,8.2216740617,-1.0594552755,0,0
"1161",7.3483691216,-1.6786093712,7.9234121663,-0.9432775378,0,0
"1162",7.1578154564,-1.744771719,7.7154739161,-0.9123681188,0,0
"1163",8.1969547272,-1.3454022408,8.7865026654,-0.7322390676,0,0
"1164",8.6524572372,-1.8583854437,9.4025072528,-0.6800128818,0,0
"1165",9.4838285446,-2.7749295235,10.7044204708,-0.6896052957,0,0
"1166",10.481054306,-2.4560925961,11.6106978185,-0.6864076853,0,0
"1167",9.0004835129,-2.204615593,9.3131070547,-0.6853418946,0,0
"1168",9.5505895615,-0.1148112491,9.5685692768,-0.5265301466,0,0
"1169",12.0499420166,0.9767189026,12.1970534221,-0.4988180697,0,0
"1170",13.5014734268,-0.9196875095,13.7740756021,-0.8260340095,0,0
"1171",15.4912853241,0.321082294,15.7185209041,-0.924092412,0,0
"1172",14.9381856918,0.9223818779,15.1161059246,-0.5574398041,0,0
"1173",15.0279989243,3.4557137489,15.7784776726,-0.5307935476,0,0
"1174",14.5933027267,1.9172130823,15.0148531808,-0.4711059928,0,0
"1175",13.8562355042,0.1263372749,13.8972802884,-0.2877798676,0,0
"1176",13.8652172089,-1.9547849894,14.2085487745,0.4572495818,0,0
"1177",13.2318840027,-1.5142511129,13.4019361549,1.0296108723,0,0
"1178",11.3661642075,-1.7088464499,11.5043413012,1.4282386303,0,0
"1179",8.5647392273,-1.8811382055,9.1998784762,2.1189095974,0,0
"1180",8.9650068283,-1.0569519997,10.160640202,2.2734577656,0,0
"1181",9.354347229,-1.2599300146,10.6792031369,2.3246188164,0,0
"1182",11.2100381851,-0.1185534671,11.9012341284,2.3107624054,0,0
"1183",11.3700561523,1.9937040806,11.837718384,1.8844224215,0,0
"1184",11.4348707199,2.4393274784,11.8602923414,1.5550749302,0,0
"1185",10.7036418915,-0.329913944,10.7485943252,1.38240695,0,0
"1186",9.911190033,-2.4475603104,10.3132120522,2.2233626842,0,0
"1187",9.8775100708,-4.372856617,10.9764547648,2.5644345284,0,0
"1188",8.9962921143,-6.9090328217,11.4202697711,2.5921471119,0,0
"1189",7.4309973717,-5.2841615677,9.1669879741,1.982480526,0,0
"1190",5.6905665398,-2.9315040112,6.4728492611,1.5305602551,0,0
"1191",5.0042438507,-2.7783722878,6.2046695967,1.3674852848,0,0
"1192",4.3957591057,-3.6128869057,6.8135669118,1.0061619282,0,0
"1193",3.2825238705,-4.2104444504,5.8328654874,0.6693533063,0,0
"1194",1.8892213106,-5.6028490067,6.0289150323,0.1652065367,0,0
"1195",1.1225156784,-6.0534119606,6.1620530406,-0.4540521801,0,0
"1196",2.1627025604,-5.0332832336,5.4825836473,-0.7631490231,0,0
"1197",2.9846434593,-2.968177557,4.2131846701,-0.7631490231,0,0
"1198",2.9270131588,-2.6102719307,4.0823961597,-0.8494828939,0,0
"1199",3.8390665054,-3.6172280312,5.7136287584,-1.2001473904,0,0
"1200",5.3431386948,-5.5989570618,8.6576442215,-1.7181506157,0,0
"1201",5.679040432,-6.0056610107,9.3766107828,-2.1423585415,0,0
"1202",7.6770853996,-6.0710749626,10.3842629136,-1.8289988041,0,0
"1203",9.2527084351,-8.5087556839,12.7380398772,-1.0413357019,0,0
"1204",9.1148452759,-6.8865795135,11.4248143287,-0.725844264,0,0
"1205",10.1671571732,-4.1739201546,11.0224141728,-0.6437739134,0,0
"1206",10.3178939819,-4.7639932632,11.3684130031,-0.6352469921,0,0
"1207",9.6284275055,-6.3746438026,11.5480959689,-0.5627688169,0,0
"1208",9.5655584335,-7.2718782425,12.0159132666,-0.4572501183,0,0
"1209",12.9639415741,-7.8411440849,15.1905730478,-0.3080310524,0,0
"1210",15.625705719,-5.5627322197,16.6003666849,-0.8494828939,0,0
"1211",16.4389648438,-1.6377443075,16.5338831861,-1.5465487242,0,0
"1212",9.388176918,-0.082478486,9.4523497713,-1.2427814007,0,0
"1213",5.5567445755,-4.0133042336,7.0742850761,-1.32272017,0,0
"1214",8.6184778214,-4.0568637848,14.5749374781,-2.0954613686,0,0
"1215",19.237695694,2.5845253468,20.6486902297,-2.3587260246,0,0
"1216",14.9702196121,5.4136424065,16.5123439045,-1.312061429,0,0
"1217",7.4916210175,0.7204518318,7.6295352643,-0.1364292204,0,0
"1218",6.0204801559,-2.7613077164,6.8024691306,-0.4252743423,0,0
"1219",6.848408699,-1.4855108261,7.0815976279,-1.1660403013,0,0
"1220",7.6643619537,0.3758683801,8.2586772253,-1.5540093184,0,0
"1221",9.3516530991,4.0456371307,11.0471540143,-1.2939420938,0,0
"1222",11.2706623077,3.3675470352,13.0759762693,-0.442328155,0,0
"1223",10.9266777039,-1.8351837397,11.9463126523,-0.1705365926,0,0
"1224",10.6581363678,-2.9156370163,11.1637225089,-0.3901014328,0,0
"1225",11.1052560806,-0.8000862002,11.135434176,-0.3346773088,0,0
"1226",10.4283638,0.3838018775,10.4708592354,-0.0969925895,0,0
"1227",9.8992147446,1.3003458977,10.102666265,-0.0628857538,0,0
"1228",10.5422773361,2.0860619545,11.0870303152,-0.1939849257,0,0
"1229",10.9241333008,0.8277786374,11.7407157417,-0.2291580886,0,0
"1230",9.5618162155,-1.1305989027,10.6541448846,-0.0937952027,0,0
"1231",9.0295228958,-0.1133143604,9.6550829531,-0.2717921138,0,0
"1232",8.5833005905,0.1122665405,8.9819455785,-0.3602577746,0,0
"1233",7.4187226295,0.9086105227,7.9691714905,-0.5585056543,0,0
"1234",7.3839950562,0.1812730432,8.2829666374,-0.5617030263,0,0
"1235",7.7591147423,0.1538800001,8.8689356757,-0.529727757,0,0
"1236",8.661737442,-1.1210188866,9.4621264768,-0.5148057938,0,0
"1237",9.2378892899,-0.2537223697,9.5551466251,-0.4433939457,0,0
"1238",8.986413002,-0.0294886772,9.1624997002,-0.405023396,0,0
"1239",9.2329502106,0.112865299,9.3616241657,-0.4465913475,0,0
"1240",10.0120801926,0.3192860484,10.2830352625,-0.463644892,0,0
"1241",10.4174365997,-0.256865859,10.7962895413,-0.5105426311,0,0
"1242",10.2511329651,-0.1043330356,10.8867853256,-0.5478473902,0,0
"1243",10.1292858124,-0.0050894166,10.7479487392,-0.4881595671,0,0
"1244",10.4895868301,0.3324586451,10.927786912,-0.4625791013,0,0
"1245",11.1131896973,1.2662168741,11.4627014342,-0.3634551764,0,0
"1246",13.1953601837,1.3783336878,13.6548510081,-0.1172440723,0,0
"1247",14.6365633011,2.6903553009,15.6827711296,0.1183090657,0,0
"1248",15.6450157166,3.6497104168,16.8922699896,0.1428234577,0,0
"1249",12.9961242676,2.4334895611,13.4402380704,0.3186887801,0,0
"1250",11.3726005554,0.5700146556,11.4015575215,0.8590747714,0,0
"1251",10.8694963455,-0.1333726496,10.875531063,1.190554142,1,0
"1252",9.5749883652,-0.6532415748,9.6833577806,1.7757058144,1,0
"1253",9.2950706482,0.7291337848,9.583904172,1.8300640583,1,0
"1254",9.6189975739,1.4650034904,10.0396472805,1.8513810635,1,0
"1255",11.0441837311,0.1492396593,12.1316422035,2.0997240543,1,0
"1256",10.6246061325,0.0481997691,11.5868541023,2.2222969532,1,0
"1257",10.6500530243,-0.0779878199,11.0778137077,2.3438038826,1,0
"1258",11.6192874908,-0.5659730434,11.6977820226,2.3981621265,1,0
"1259",11.7486190796,-0.6707551479,11.8231321251,2.2521407604,1,0
"1260",10.6398744583,-0.5239105225,10.7680895106,1.9494395256,1,0
"1261",8.945098877,-1.6338523626,9.2631116163,1.7053594589,1,0
"1262",7.5101823807,-2.4765999317,8.2961361084,1.4985847473,1,0
"1263",7.4492592812,-2.6863138676,8.3938709424,1.2843488455,1,0
"1264",7.6856174469,-2.7479856014,8.5952484489,0.9198281169,1,0
"1265",8.224946022,-1.7991087437,8.7043298404,0.5574392676,1,0
"1266",7.9998145103,-2.2222788334,8.5659257482,0.4284712076,1,0
"1267",6.7449736595,-3.2897090912,7.8916031939,0.3474666178,1,0
"1268",6.3625192642,-3.9820194244,7.7621234698,0.1673381329,1,0
"1269",6.123167038,-4.1083564758,7.4706160636,-0.1716023833,1,0
"1270",5.9329123497,-3.8640646935,7.1249788518,-0.4711059928,1,0
"1271",5.790708065,-4.0456371307,7.1640412009,-0.6650906801,1,0
"1272",5.4239706993,-4.824467659,7.4837852676,-0.8345609307,1,0
"1273",5.2820658684,-5.1624646187,7.8542308316,-1.0008332729,1,0
"1274",5.1238451004,-5.7616686821,8.1999994045,-1.1329987049,1,0
"1275",5.3453841209,-5.8586668968,8.4782319425,-1.3973296881,1,0
"1276",5.847140789,-5.3998708725,8.5941215296,-1.7213480473,1,0
"1277",7.1841602325,-5.0472044945,9.60339626,-1.9089375734,1,0
"1278",10.2768793106,-4.0296201706,11.9548290758,-1.6403434277,1,0
"1279",14.6468915939,-4.2923240662,16.3404371941,-1.2694276571,1,0
"1280",16.1562023163,-3.6976108551,16.8754530104,-1.2076085806,1,0
"1281",10.0297431946,-2.8994705677,10.6738572521,-1.2140033245,1,0
"1282",8.7579879761,-1.3852194548,9.01126284,-1.0605211258,1,0
"1283",12.2764205933,-2.2939796448,13.1849686783,-0.9134339094,1,0
"1284",10.3520231247,-2.8108549118,13.5336241016,-1.1329987049,1,0
"1285",7.8616514206,-1.4221925735,10.1246895448,-1.1745669842,1,0
"1286",8.9636602402,-0.5432203412,9.7067341504,-1.1383283138,1,0
"1287",10.2867584229,0.2390528917,10.5190039728,-1.1468548775,1,0
"1288",9.750872612,0.6439608932,9.8548486539,-1.1319329739,1,0
"1289",9.0816144943,-0.4284091294,9.1481664603,-1.0733114481,1,0
"1290",8.6017122269,-1.4133609533,8.8552895466,-0.9230266213,1,0
"1291",8.9034852982,-1.5545173883,9.6863729498,-0.8814581037,1,0
"1292",9.7028226852,0.2180964649,10.7375014637,-1.0050969124,1,0
"1293",9.7561120987,0.9253757,10.7916789601,-1.0626527071,1,0
"1294",9.6189975739,1.0189311504,10.5050439981,-1.1106162071,1,0
"1295",8.3385601044,1.2740006447,8.7824428196,-0.9805822968,1,0
"1296",8.2571296692,1.0880873203,8.590978779,-0.8750630617,1,0
"1297",8.3412542343,0.9891430736,8.6321651164,-0.802585125,1,0
"1298",10.7792348862,0.2267784178,10.8496324046,-0.4135502875,1,0
"1299",10.8278837204,0.8916957378,10.9737700796,-0.1342976242,1,0
"1300",10.8314762115,1.1133847237,11.0471091239,-0.0341073722,1,0
"1301",10.6840324402,0.3978726268,11.1390491029,-0.1257707179,1,0
"1302",10.2758312225,-0.0983454883,10.8796629281,-0.1705365926,1,0
"1303",10.3053197861,0.1454974413,10.8617332478,-0.2270264924,1,0
"1304",9.785900116,0.8884025812,10.2457206911,-0.3410723805,1,0
"1305",9.4278450012,1.1987072229,9.9091773296,-0.345335573,1,0
"1306",9.0007829666,1.0297087431,9.5179330316,-0.4881595671,1,0
"1307",9.18998909,0.7412585616,9.5743068036,-0.6395102143,1,0
"1308",9.6191473007,-0.3835025132,9.9256494266,-0.6331151724,1,0
"1309",10.010433197,-0.6679110527,10.3516715796,-0.4433939457,1,0
"1310",10.1231489182,-0.7527845502,10.6905855777,-0.2163679898,1,0
"1311",9.9177761078,-0.2945874035,10.7324981159,-0.1161777377,1,0
"1312",9.1191864014,-0.0088316342,9.9049475743,-0.1172440723,1,0
"1313",8.9442005157,0.2122586071,9.6720402569,-0.16840446,1,0
"1314",8.5627937317,0.3472778201,9.1659979374,-0.1875896007,1,0
"1315",8.5059118271,0.0046403501,9.0511765869,-0.2248948961,1,0
"1316",9.5733423233,0.0811312869,10.2405027725,-0.3474671543,1,0
"1317",9.670340538,0.4712201059,10.2630565571,-0.3751792014,1,0
"1318",9.4779901505,0.2597099245,9.8132607718,-0.3719818294,1,0
"1319",9.4720029831,-0.2100132704,9.7064460808,-0.3165577054,1,0
"1320",9.9989070892,-0.256865859,10.2439333943,-0.2941746414,1,0
"1321",9.9096927643,0.554297328,10.3892147627,-0.283516407,1,0
"1322",8.751999855,0.9659413099,9.3427088741,-0.3773113489,1,0
"1323",8.9515352249,0.71536237,9.4323829774,-0.5435836911,1,0
"1324",9.4368257523,0.8475375175,9.9593848361,-0.5617030263,1,0
"1325",9.680519104,0.9398954511,10.350900996,-0.4391307533,1,0
"1326",9.8670310974,0.6813830733,10.3897221912,-0.3506650925,1,0
"1327",10.4562063217,1.0852432251,11.0154913279,-0.3240188062,1,0
"1328",10.0301923752,2.091001749,10.8161188145,-0.2227627784,1,0
"1329",9.9611854553,2.3568489552,10.8771339164,-0.2696605027,1,0
"1330",9.8372430801,2.3076012135,10.6279375391,-0.4913569391,1,0
"1331",11.5642023087,2.5616230965,12.0926150398,-0.6203250289,1,0
"1332",12.0726947784,2.9328510761,12.5425216704,-0.5446494818,1,0
"1333",11.4055318832,2.3737637997,11.8161040767,-0.4359328449,1,0
"1334",11.7830467224,0.2427951097,11.9547933374,-0.2366189361,1,0
"1335",12.4081468582,0.0378712453,12.7316535148,-0.1087171584,1,0
"1336",12.3102502823,2.5550367832,13.1392274311,0.0117240343,1,0
"1337",12.4828414917,3.185226202,13.5022654575,-0.1577459574,1,0
"1338",12.7355165482,3.2467484474,13.7650236416,-0.2110384703,1,0
"1339",13.4468374252,1.8188676834,14.1540035124,-0.057556238,1,0
"1340",12.9898376465,1.1937675476,13.4091634363,0.3602569997,1,0
"1341",11.7601442337,1.2750484943,12.1753219405,0.8366919756,1,0
"1342",11.1777057648,1.2042458057,11.5443923615,1.1255371571,1,0
"1343",9.5766353607,0.6614744663,9.8939695082,1.7053594589,1,0
"1344",9.7266235352,0.6619235277,9.9589129376,1.7511911392,1,0
"1345",11.363319397,0.7283853292,11.4174428708,1.9291880131,1,0
"1346",11.5270795822,1.2951067686,11.6105315709,2.0517609119,1,0
"1347",11.8192720413,2.8377988338,12.1784540498,2.3811085224,1,0
"1348",12.5226593018,1.3732442856,12.8150078529,2.8671360016,1,0
"1349",12.4931707382,1.3168116808,12.9961553904,3.0888328552,1,0
"1350",11.2306957245,-1.378932476,11.8855986831,3.1453230381,1,0
"1351",11.0328073502,-0.1007405072,11.657474566,3.0792403221,1,0
"1352",8.3675994873,-3.9043309689,9.8965608885,2.6219906807,1,0
"1353",8.9871606827,-3.2377669811,9.966782905,2.6273198128,1,0
"1354",9.407037735,-2.7839107513,10.1332650065,2.5665667057,1,0
"1355",9.7290182114,-2.3734643459,10.2246035921,2.2766551971,1,0
"1356",7.9882884026,-2.5601263046,8.6645692586,2.2691941261,1,0
"1357",6.6809067726,-3.6468663216,7.9972190792,2.4770350456,1,0
"1358",4.750521183,-3.2169601917,5.9666114691,2.4642448425,1,0
"1359",2.943628788,-4.2457709312,5.1892241405,2.3342111111,1,0
"1360",4.8358440399,-4.7370491028,6.7702015117,2.2958402634,1,0
"1361",5.0656161308,-4.3712100983,6.7120015163,2.3075649738,1,0
"1362",3.6455190182,-4.8327002525,6.0563675844,2.1796629429,1,0
"1363",2.6188042164,-6.4159579277,6.937141203,1.698964715,1,0
"1364",2.4370820522,-5.8975858688,6.4058155936,1.5199019909,1,1
"1365",2.1230351925,-5.717959404,6.1220113508,1.0370719433,1,0
"1366",1.8284476995,-6.9389705658,7.22886339,0.3751786649,1,0
"1367",1.4084211588,-7.0813241005,7.4377036187,-0.0607536286,1,0
"1368",1.952090621,-7.4649763107,7.818978515,-0.4924232662,1,0
"1369",2.5325834751,-8.4782190323,8.8785255844,-0.7897952795,1,0
"1370",2.9165351391,-9.092092514,9.656549838,-0.8249682188,1,0
"1371",3.5560052395,-8.4665441513,9.4993558966,-0.8452194333,1,0
"1372",4.2763075829,-8.6852388382,10.0207887095,-0.8505486846,1,0
"1373",8.4782190323,-12.1319713593,15.1936183583,-0.0607536286,1,0
"1374",10.5904769897,-15.6396274567,19.2204807402,0.2089063525,1,0
"1375",8.9334230423,-15.6761512756,18.6166031106,0.222762242,1,0
"1376",7.1555700302,-14.3557472229,16.6289406602,0.0266457256,1,0
"1377",4.0751256943,-8.5229759216,9.4870372473,-0.529727757,1,0
"1378",2.5879683495,-5.583688736,6.3257961933,-1.2662299871,1,0
"1379",7.4768018723,-10.4672832489,12.9336267838,-2.0048642159,1,0
"1380",10.1503925323,-12.0812273026,15.804296484,-1.6371461153,1,0
"1381",9.5231962204,-10.1316814423,13.9516453145,-1.5667999983,1,0
"1382",8.4478330612,-7.3748641014,11.2147825233,-1.6936359406,1,0
"1383",7.0979399681,-5.7302341461,9.2095524828,-1.8023525476,1,0
"1384",7.2380485535,-4.6494812965,8.8523968053,-1.8545793295,1,0
"1385",9.414522171,-4.2953176498,10.9631228889,-1.8535134792,1,0
"1386",10.6307430267,-4.7042675018,12.0659528939,-1.8716328144,1,0
"1387",10.4638404846,-3.8059854507,11.4260556858,-1.9302543402,1,0
"1388",8.8763914108,-3.7606296539,9.7150656042,-2.0080616474,1,0
"1389",7.7089691162,-2.7999274731,8.2246026497,-2.014456749,1,0
"1390",7.1846094131,-2.3396346569,7.6390821151,-1.9046744108,1,0
"1391",7.2130503654,-2.1195921898,7.7533768711,-1.591314435,1,0
"1392",7.5158705711,-1.942959547,8.3115270518,-1.1735011339,1,0
"1393",6.7461714745,-2.7749295235,8.3320816117,-0.8985119462,1,0
"1394",6.4828686714,-2.8696825504,8.1864819076,-0.8196389675,1,0
"1395",7.5139245987,-2.7345135212,9.1280458148,-1.0232163668,1,0
"1396",8.3300275803,-2.1885988712,9.5598324315,-1.3376419544,1,0
"1397",8.6274595261,-0.6185138226,10.190042939,-1.6328823566,1,0
"1398",8.9744377136,0.4281097353,11.2516176544,-1.7170848846,1,0
"1399",9.4549379349,0.287851423,11.0808071231,-1.1862912178,1,0
"1400",9.0153026581,-0.7008426189,9.6599086509,-0.4924232662,1,0
"1401",10.5737113953,-2.8626470566,10.957105754,-0.674683392,1,0
"1402",9.5743904114,-4.4789857864,10.5923664461,-0.9166312814,1,0
"1403",8.5761156082,-3.4841547012,9.2869518503,-0.9805822968,1,0
"1404",10.2668495178,1.091380477,11.9447172227,-0.7716757059,1,0
"1405",10.1339263916,-0.4993615746,11.3331925627,-0.3805087209,1,0
"1406",9.3137817383,-0.7354207039,10.3446700963,-0.3154919147,1,0
"1407",7.6648111343,-0.3194357157,8.3295306367,-0.4934890866,1,0
"1408",8.2430582047,-0.0297880545,8.7083095812,-0.7567537427,1,0
"1409",8.5168390274,-0.694405973,8.9976422082,-0.8377583027,1,0
"1410",9.7297668457,-0.2767744362,10.266325812,-0.6245882511,1,0
"1411",9.5793294907,-0.6471043229,10.5464836444,-0.4497889876,1,0
"1412",9.2838439941,-1.3506413698,10.3726965864,-0.4870937467,1,0
"1413",8.9150114059,-0.8403524756,9.7175535588,-0.6437739134,1,0
"1414",8.9742879868,0.07499405,9.42237339,-0.5105426311,1,0
"1415",9.660161972,1.0714718103,10.0715389999,-0.405023396,1,0
"1416",10.6374788284,0.5797443986,11.0969935014,-0.3186893165,1,1
"1417",10.8377628326,0.9455836415,11.1266358277,-0.3986280859,1,0
"1418",10.4298610687,1.0729687214,10.5718674513,-0.4647106826,1,0
"1419",10.238858223,1.6723223925,10.3871980222,-0.5009499192,1,0
"1420",11.0612478256,2.7619066238,11.421893703,-0.0564904399,1,0
"1421",11.4270868301,4.5216469765,12.4022280999,0.1300333738,1,0
"1422",11.6674871445,4.4188108444,12.7177668011,-0.0063953148,1,0
"1423",11.831246376,3.6089949608,12.3975765937,-0.158811748,1,0
"1424",11.998000145,3.5953733921,12.5581235332,-0.2014460266,1,0
"1425",9.4197616577,3.3775763512,10.4307042459,-0.104453437,1,0
"1426",9.2558526993,2.7583141327,10.0598319171,0.0277120546,1,0
"1427",9.315279007,2.7195446491,9.888537821,0.1843916774,1,0
"1428",8.9727907181,3.165168047,9.6587771963,0.3080302775,1,0
"1429",8.6732635498,2.9440777302,9.2075988569,0.3858374357,1,0
"1430",9.1006250381,2.4923171997,9.5562252825,0.3687838912,1,0
"1431",9.0317687988,2.3246657848,9.527730123,0.2771208286,1,0
"1432",7.9724211693,0.2957849205,8.141067815,0.2824498117,1,0
"1433",8.6062030792,-0.1764830053,8.6790858076,0.3048328757,1,0
"1434",8.6648817062,1.0645861626,8.7917157454,0.3005694151,1,0
"1435",8.410859108,1.489402771,8.9103638902,0.1971820444,1,0
"1436",9.347910881,1.3105247021,9.8006461884,0.0628849566,1,0
"1437",9.7397956848,0.9719288349,10.1517665885,0.1854574829,1,0
"1438",9.4239530563,-0.0013471985,9.8107515952,0.3058986664,1,0
"1439",9.3640775681,-0.3315605223,9.4631722014,0.4231421947,1,0
"1440",9.5528345108,0.7863148451,9.623081561,0.4615127742,1,0
"1441",9.6396541595,0.5489085317,9.9155934071,0.3645201623,1,0
"1442",9.6821660995,-0.9723779559,10.5539996913,0.2590009272,1,0
"1443",9.9023580551,-0.0678089932,10.8724976215,0.1033871099,1,0
"1444",9.4986476898,0.5854325891,10.3318447969,0.0778066516,1,0
"1445",9.6124105453,0.3915857077,10.8630059409,0.1001897156,1,0
"1446",8.9370155334,0.4475692809,10.2193207654,0.0436992794,1,0
"1447",9.5540323257,-0.0249980167,10.3889140391,0.0223825369,1,0
"1448",9.6368103027,0.5179229975,10.2018156044,0.1097824275,1,0
"1449",9.204957962,0.7066804767,9.5090385405,0.1353628784,1,0
"1450",9.3636283875,0.6806346178,9.5773889654,0.0852677599,1,0
"1451",9.3357858658,-0.2618055642,9.4467820759,-0.0330415741,1,0
"1452",9.8011684418,-0.8467891216,9.9966360156,-0.0895320103,1,0
"1453",9.9653768539,-0.035625916,10.298561618,-0.1023218483,1,0
"1454",9.3492584229,0.2188449055,9.9513284688,-0.1097829565,1,0
"1455",8.5280656815,-0.0261955261,9.1524062698,-0.0969925895,1,0
"1456",8.5407896042,-1.1963123083,9.0079386984,-0.06501735,1,0
"1457",9.1121511459,-0.9779164195,9.5967122329,-0.0330415741,1,0
"1458",9.7649440765,0.6575825214,10.2108859445,-0.2110384703,1,0
"1459",10.4256696701,1.5943346024,11.0609750505,-0.4167476892,1,0
"1460",10.2765798569,1.114582181,10.9695387337,-0.5254642963,1,0
"1461",10.8419542313,0.6370751858,11.3574552947,-0.5904814005,1,0
"1462",12.3783588409,0.2336640954,12.5972807599,-0.5137400031,1,0
"1463",13.1507530212,1.0340496302,13.2178663315,-0.5755594373,1,0
"1464",13.3425045013,1.7022601366,13.4529582688,-0.6267203689,1,0
"1465",14.5698022842,1.0166858435,14.642952619,-0.6736175418,1,0
"1466",15.5278100967,1.2964539528,15.8179492834,-0.654432416,1,0
"1467",15.1194591522,1.7621356249,15.4385783325,-0.5744936466,1,0
"1468",14.7370042801,1.710193634,15.0135370841,-0.3879698515,1,0
"1469",15.3992271423,1.8276993036,15.6993217759,-0.1300338954,1,0
"1470",13.4465379715,1.7464183569,13.6187466611,0.1630749404,1,0
"1471",12.5506505966,1.2826826572,12.6161105142,0.5158711076,1,0
"1472",11.9306402206,0.0788859576,11.9445383783,1.0509278774,1,0
"1473",10.8766822815,-0.4308041334,11.1177735593,1.5838527679,1,0
"1474",10.5394334793,1.3512400389,11.5640010375,1.9195953608,1,0
"1475",8.8798341751,1.7295035124,10.7008690454,2.060287714,1,0
"1476",8.9398593903,-0.0907113627,10.0301558709,2.2532064915,1,0
"1477",13.4600095749,-0.9235793948,13.6923791559,3.0824377537,1,0
"1478",15.2339706421,0.2921923697,15.3120540632,3.1996815205,1,0
"1479",12.2776184082,3.0437705517,12.7168243225,3.1474547386,1,0
"1480",10.143655777,2.1868026257,10.4713408495,3.1911547184,1,0
"1481",9.6872549057,-1.5557148457,10.0550012547,3.2753565311,1,0
"1482",10.7473506927,-3.066672802,12.2731900934,3.0323429108,1,0
"1483",7.6624159813,-2.5116269588,9.2929170278,2.8532800674,1,0
"1484",6.675368309,-2.2173390388,8.1508897729,2.7179172039,1,0
"1485",5.2501821518,-3.0942156315,7.2062425466,2.5686981678,1,0
"1486",4.7804589272,-3.4829571247,6.2927823456,2.5100762844,1,0
"1487",3.7959563732,-5.9342594147,7.077113873,2.3555281162,1,0
"1488",5.258564949,-4.7044172287,7.0557832089,1.8353933096,1,0
"1489",3.745511055,-3.9558238983,5.4946984836,1.3834728003,1,0
"1490",1.8404228687,-4.3034009933,5.0200694705,1.0402693748,1,1
"1491",0.3513194323,-4.413122654,4.6105783734,0.8921160698,1,0
"1492",1.7067507505,-4.2311015129,4.7467787009,0.5350562334,1,0
"1493",2.2929317951,-5.163213253,7.182570384,0.2526061535,1,0
"1494",2.6554780006,-4.7713279724,7.2822081627,-0.114046149,1,0
"1495",2.9749135971,-5.6946082115,6.9583013233,-0.8217705488,1,0
"1496",2.7523264885,-5.9207878113,6.6063216712,-1.360024929,1,0
"1497",3.0784981251,-7.3818993568,8.0331392552,-1.6179606915,1,0
"1498",3.2570769787,-7.5100326538,9.2231352123,-1.312061429,1,0
"1499",4.2785525322,-7.0162096024,10.4997514968,-0.7514247298,1,0
"1500",8.6653299332,-6.5201411247,12.8157287995,-0.2238291055,1,0
"1501",14.8621444702,-7.9707746506,18.8466017354,-0.349599272,1,0
"1502",11.6237783432,-9.4523935318,16.3137655535,-0.5425179005,1,0
"1503",4.5785288811,-8.8464536667,10.0627081239,-0.3911672235,1,0
"1504",4.1227269173,-8.7566404343,9.7623400725,-0.497752279,1,0
"1505",6.5484323502,-7.1432952881,10.2708431551,-0.6096665263,1,0
"1506",7.8025245667,-6.8629283905,11.9621659538,-0.5073447227,1,0
"1507",8.0264587402,-6.2507014275,11.3714862469,-0.6618932486,1,0
"1508",7.0271368027,-7.1507797241,10.8150995029,-0.8302971721,1,0
"1509",6.405479908,-8.694070816,11.6823105332,-0.8644045591,1,0
"1510",6.2424688339,-8.9570732117,11.9987957668,-0.8420220017,1,0
"1511",6.8954110146,-8.0664253235,11.6434468581,-0.8814581037,1,0
"1512",7.8670406342,-7.254963398,11.4853256144,-1.0242820978,1,0
"1513",8.3445472717,-6.0656862259,11.0259748171,-1.2470449209,1,0
"1514",8.8790855408,-5.5344409943,11.2346734656,-1.2747569084,1,0
"1515",9.4827804565,-5.3717293739,11.5691004704,-1.2054764032,1,0
"1516",9.7770681381,-5.3631973267,11.7019795365,-1.3610907793,1,0
"1517",10.6183195114,-5.2977833748,12.0831122718,-1.5199024677,1,0
"1518",12.2533693314,-4.2225689888,13.0418198712,-1.5731949806,1,0
"1519",11.3660144806,-2.2245240211,11.6518120793,-1.6104997396,1,0
"1520",7.9423336983,-1.6211287975,8.2519191475,-1.4676758051,1,0
"1521",6.1095452309,-1.7576450109,6.4959281492,-1.1361966133,1,0
"1522",5.6711068153,-2.183359623,6.1860352911,-0.8580097556,1,0
"1523",7.3146891594,-1.8362315893,7.7242528165,-0.7855315804,1,0
"1524",9.8011684418,-1.8699115515,10.3626245434,-0.8302971721,1,0
"1525",11.4516363144,-1.4229409695,12.6419485411,-1.0168210268,1,0
"1526",9.1917858124,0.6893165708,11.7685776611,-1.1308671236,1,0
"1527",6.7686247826,1.7399816513,10.4272651974,-0.9123681188,1,0
"1528",5.9541683197,0.1675016731,8.6668829769,-0.7780709863,1,0
"1529",6.7979636192,-0.721799016,8.4474564194,-0.7407659888,1,0
"1530",8.6383867264,-1.4805711508,9.5970433451,-0.8548118472,1,0
"1531",9.8239212036,-2.3942711353,10.450827125,-0.8079146743,1,0
"1532",10.5750589371,-3.1865735054,11.1625726131,-0.5105426311,1,0
"1533",10.4380941391,-2.3219714165,10.7698234709,-0.361323595,1,0
"1534",9.8314056396,-2.838996172,10.4497699913,-0.2110384703,1,0
"1535",9.7474298477,-0.8804690838,10.8940578398,-0.082070902,1,0
"1536",8.559800148,-0.574205935,10.1456871153,-0.0703463331,1,0
"1537",8.1547422409,-0.5376818776,10.4701411447,-0.1300338954,1,0
"1538",9.5302314758,-0.8797206283,11.4190204357,-0.0586220361,1,0
"1539",8.4301691055,0.1360670477,9.5134888304,-0.0117248334,1,0
"1540",8.1601305008,-0.1642085314,8.7414229726,-0.0490293279,1,0
"1541",8.4294204712,-1.13643682,8.5346663904,-0.1801290214,1,0
"1542",8.5850973129,-1.1624826193,8.6953024097,-0.0106590362,1,0
"1543",7.878715992,1.4446458817,8.4717836471,-0.1598775536,1,0
"1544",8.7172727585,1.5926879644,9.4416535187,-0.3250846267,1,0
"1545",10.8585691452,-0.2260299623,11.7042149442,-0.6682880521,1,0
"1546",9.8391895294,-1.0743159056,10.489430512,-0.5148057938,1,0
"1547",9.1777153015,1.2729529142,9.6471319018,-0.327216208,1,0
"1548",9.0997266769,1.8770965338,9.8092871588,-0.3464013636,1,0
"1549",11.7802028656,0.5858816504,12.0796301769,-0.5137400031,1,1
"1550",10.7605237961,-1.1452684402,11.1369544104,-0.1342976242,1,0
"1551",10.338101387,-0.9952803254,10.7671294248,0.136428684,1,0
"1552",8.436756134,1.0523116589,9.4412147335,0.353861928,1,0
"1553",9.5194540024,0.3700305223,9.9352529612,0.2579351366,1,0
"1554",10.3388500214,0.0056881714,10.5674661553,0.3208203614,1,0
"1555",10.2111654282,-0.0499960333,10.7819604612,0.7258437276,1,0
"1556",9.110953331,1.3250445127,10.3145457695,0.7354362011,1,0
"1557",8.9374647141,1.9585272074,10.2429960559,0.4540516436,1,0
"1558",9.5357704163,1.741029501,10.0918450699,0.0330410413,1,0
"1559",12.3371944427,0.7035369873,12.3761497503,-0.2675283849,1,0
"1560",16.069683075,0.3489243984,16.0735300392,-0.4039576054,1,0
"1561",16.7179851532,1.6390914917,16.8765036584,-0.6309835315,1,0
"1562",15.0164728165,2.0794756413,16.1271091235,-0.8409562111,1,0
"1563",14.8540611267,2.2670357227,15.8100058055,-1.0850358009,1,0
"1564",15.7009992599,1.8625767231,15.9394396032,-1.0509283543,1,0
"1565",15.6096897125,1.8434165716,15.7248469941,-0.573427856,1,0
"1566",13.3814229965,0.007484436,13.3966391377,0.1353628784,1,0
"1567",12.4853868484,-1.171613574,12.5738298179,0.6181926727,1,0
"1568",11.2154273987,-0.4019142091,11.3952657406,1.0157546997,1,0
"1569",9.0516767502,-0.5783972144,9.713684921,1.3642876148,1,0
"1570",7.2947802544,-0.7824229598,8.471870101,1.5572065115,1,0
"1571",6.7880840302,-1.020727396,8.1210232906,1.5454819202,1,0
"1572",8.4610052109,-0.9984237552,8.8490168656,1.4751361609,1,0
"1573",10.227481842,-0.5629792809,10.3432956377,1.54441607,1,0
"1574",11.5445928574,-0.1712438911,11.565303978,1.6467379332,1,0
"1575",11.3890666962,-0.4917274415,11.4067228872,1.8076813221,1,0
"1576",10.4093532562,-0.6854246259,10.4405418121,2.1391606331,1,0
"1577",9.827214241,-2.1371059418,10.0769890197,2.4631791115,1,0
"1578",9.447303772,-3.1454091072,9.9576438335,2.6198592186,1,0
"1579",9.5372667313,-3.9363641739,10.3310291634,2.3864378929,1,0
"1580",9.4378738403,-3.2525861263,10.0427093176,2.0069952011,1,0
"1581",8.5927314758,-2.4128324986,8.9422987213,1.9632954597,1,0
"1582",8.5280656815,-2.9518616199,9.0404474752,1.9920732975,1,0
"1583",8.2984428406,-3.1443612576,8.932081167,1.9632954597,1,0
"1584",8.2899112701,-2.6038353443,8.8539617777,1.8417886496,1,0
"1585",7.1982312202,-2.4478597641,8.2995982613,1.8183398247,1,0
"1586",6.0623931885,-3.0558953285,8.0988809825,1.6350133419,1,0
"1587",6.2563896179,-3.0542485714,7.5551548116,1.4101190567,1,0
"1588",5.6161708832,-3.8270914555,6.8574207624,1.2363855839,1,0
"1589",5.6917638779,-4.3680667877,7.1808403675,1.0637181997,1,0
"1590",5.7047867775,-4.6711864471,7.4105958703,1.0509278774,1,0
"1591",5.5353393555,-5.4883370399,7.8782586516,1.0562571287,1,0
"1592",5.3012261391,-5.0106801987,7.2956249138,0.8207039833,1,0
"1593",5.5998549461,-5.8363633156,8.1051138853,0.6512339711,1,1
"1594",5.5631814003,-5.8989329338,8.1835042507,0.4103518426,1,0
"1595",5.6503000259,-6.1587924957,8.5107013432,0.2696599662,1,0
"1596",5.367837429,-6.3345274925,8.4823209127,-0.0522267185,1,0
"1597",4.8307542801,-7.0221972466,8.7046265326,-0.2547385395,1,0
"1598",5.2925438881,-7.3971676826,9.1922777689,-0.3932991028,1,0
"1599",5.8323216438,-6.8222131729,9.1404985468,-0.2611336112,1,0
"1600",5.9460849762,-6.735543251,9.1652238115,-0.4274059236,1,0
"1601",5.9426422119,-6.564748764,9.3572096827,-0.7269101143,1,0
"1602",5.710474968,-6.7873358727,9.3813402226,-1.0253479481,1,0
"1603",6.1908259392,-6.7319507599,9.3659624407,-1.2832835913,1,0
"1604",8.0665750504,-6.4869103432,10.4169339158,-1.2662299871,1,0
"1605",9.815987587,-6.6672854424,11.8682990191,-0.7311732769,1,0
"1606",10.7955503464,-8.4912424088,13.7501475933,-0.5649009347,1,0
"1607",10.1777849197,-7.9001216888,12.9378956905,-0.7546221614,1,0
"1608",8.5262699127,-4.5653562546,9.6756972739,-0.8974461555,1,0
"1609",10.5192251205,-6.1764559746,12.7001571285,-0.448723197,1,0
"1610",12.3367452621,-8.9165077209,15.879235371,0.1556138247,1,0
"1611",10.5270090103,-9.9586410522,15.0596287947,0.2835156024,1,0
"1612",4.951253891,-7.9474234581,9.4058906765,-0.1875896007,1,0
"1613",5.5339918137,-8.0282554626,9.7615100705,-0.349599272,1,0
"1614",6.4246397018,-8.3243398666,10.5339366531,-0.3282819986,1,0
"1615",9.7341079712,-8.651558876,13.0535256253,-0.1886559278,1,0
"1616",11.0450820923,-6.4470930099,12.9178748437,-0.6554982066,1,0
"1617",9.929901123,-4.4026446342,11.1359021206,-1.1543160677,1,0
"1618",7.1446428299,-4.4758424759,8.4501799073,-1.7778378725,1,0
"1619",9.419462204,-3.6287539005,10.1176889656,-1.753323555,1,0
"1620",12.0864658356,-2.9675788879,12.5437588557,-1.7948914766,1,0
"1621",13.5887422562,0.8942404389,13.9679918873,-1.8364599943,1,0
"1622",11.5718364716,1.3801300526,12.2084099221,-1.5731949806,1,0
"1623",7.9538598061,0.5108876228,8.735799547,-1.4591491222,1,0
"1624",7.4130344391,0.2571652234,8.222409902,-1.3173909187,1,0
"1625",9.2166337967,0.1052311733,10.3532829496,-1.081838131,1,0
"1626",9.6282777786,-0.6881190538,10.8015179733,-0.9933726788,1,0
"1627",10.4815034866,-1.9091299772,11.433513009,-0.8654703498,1,0
"1628",10.5512580872,-0.1889071614,11.5035547485,-0.8921166062,1,0
"1629",10.2984342575,0.1002914459,11.2972143605,-0.839889884,1,0
"1630",8.3199987411,-0.3658392429,8.7584166238,-0.4295380712,1,0
"1631",8.405620575,-0.9427395463,8.6192528194,-0.4135502875,1,0
"1632",8.4535207748,-0.6246510148,8.5597774883,-0.5425179005,1,0
"1633",7.2405929565,-1.0984158516,7.8677938279,-1.0551921129,1,0
"1634",8.2048873901,-1.333127737,9.0913498061,-1.1415256262,1,0
"1635",9.2440271378,-0.87912184,10.1156659842,-1.27795434,1,0
"1636",10.3159475327,0.3673361242,11.0466039212,-1.4111856222,1,0
"1637",10.5148839951,0.721799016,10.7845429188,-1.3312468529,1,0
"1638",11.2809906006,0.4951702952,11.3039933567,-1.0189530849,1,1
"1639",11.1637849808,-0.799936533,11.2681250477,-0.6501687169,1,0
"1640",10.7883653641,-0.1975891143,11.2545672153,-0.3719818294,1,0
"1641",9.5122690201,0.0628692657,10.1260560038,-0.1630754769,1,0
"1642",8.818611145,-1.06054461,9.8008454717,0.0383702926,1,0
"1643",9.3359355927,-1.4873070717,10.4051832048,0.2430137098,1,0
"1644",8.712931633,-0.3611988723,9.6415726306,0.5318588614,1,0
"1645",7.8206367493,1.2769944668,8.6149450101,0.6725512147,1,0
"1646",7.6543326378,1.2602293491,8.3825667631,0.6309827566,1,0
"1647",9.7088108063,0.7003934979,10.1737776938,0.3144255877,1,0
"1648",10.4274663925,1.0722203255,11.1396446278,0.3016352057,1,0
"1649",9.4345808029,0.0977467373,9.644358402,0.4188784957,1,0
"1650",11.6799116135,0.6968010068,11.8195611749,0.556373477,1,0
"1651",12.5747509003,2.8199858665,13.1674177382,0.1342968196,1,0
"1652",13.3704957962,2.7592122555,13.9856319268,-0.5862177014,1,0
"1653",14.4079885483,2.2531147003,14.7823323343,-1.0935623646,1,0
"1654",17.068107605,0.3291654885,17.2799281465,-0.8548118472,1,0
"1655",17.2971305847,0.1998344362,17.6252614536,-0.718383193,1,0
"1656",15.464641571,1.9422111511,16.1452868691,-0.5553082228,1,0
"1657",13.0744113922,1.6977695227,13.8874812994,-0.0884656832,1,0
"1658",12.1562213898,-0.437689811,12.7803271271,0.4838958383,1,0
"1659",10.9844579697,-1.129551053,11.2305387226,0.9976353049,1,0
"1660",9.8345489502,-1.4385086298,10.0246195048,1.3600244522,1,0
"1661",9.7050685883,-1.384920001,9.9282721134,1.5902477503,1,0
"1662",10.7058868408,-1.1458671093,10.9558854264,1.6808453798,1,0
"1663",11.4435529709,-0.4751119912,11.6720874364,1.9334515333,1,0
"1664",11.2320432663,-0.3582051098,11.5894099335,2.7712097168,1,0
"1665",10.9961338043,-0.3686833084,11.1345547568,3.0835037231,1,0
"1666",9.8579006195,-3.1088850498,11.0315301011,3.0962939262,1,0
"1667",8.5403404236,-2.4399261475,9.4323235267,2.4589157104,1,0
"1668",9.0027284622,-2.0425026417,9.5735238553,2.1626091003,1,0
"1669",9.7152471542,-2.1848566532,10.2244151799,2.0741438866,1,0
"1670",9.2811498642,-2.1179456711,9.8951234155,1.9206610918,1,0
"1671",8.5333051682,-3.2217502594,9.7060338082,1.7991544008,1,0
"1672",7.0549793243,-3.4012269974,8.8505242489,1.8929491043,1,0
"1673",5.9246797562,-3.9173538685,7.9191769552,1.9835463762,1,0
"1674",4.8946714401,-3.2766861916,5.8977522496,1.7746399641,1,0
"1675",2.6150619984,-3.2603700161,4.1846057512,1.7074916363,1,0
"1676",2.5104296207,-3.6553986073,4.4452558624,1.5614699125,1,1
"1677",3.1933095455,-4.9599356651,5.9475218669,1.3674852848,1,0
"1678",3.3626074791,-5.5612354279,6.6649926309,1.1138128042,1,0
"1679",3.535946846,-5.1217494011,6.3286940331,0.9358158708,1,0
"1680",3.7443137169,-5.0973501205,6.3590288748,0.6864068508,1,0
"1681",2.9638366699,-6.0571541786,6.8539867745,0.4231421947,1,0
"1682",2.97057271,-8.0647792816,8.9102311723,0.1183090657,1,0
"1683",3.6980597973,-8.494685173,9.7449311995,0.0202509426,1,0
"1684",4.5753855705,-7.8742256165,9.5799855452,0.0127898315,1,0
"1685",4.8892827034,-7.9105997086,9.6258924987,-0.2451458424,1,0
"1686",3.7657191753,-8.4030761719,9.5656840689,-0.6523002982,1,0
"1687",3.4018259048,-10.3933372498,11.3112546119,-0.9262239933,1,0
"1688",4.0776705742,-10.3671417236,11.5762501381,-1.0253479481,1,0
"1689",4.4813809395,-10.946436882,12.2008227962,-0.9933726788,1,0
"1690",4.6595106125,-10.2497854233,11.8062120283,-1.0285458565,1,0
"1691",12.9200820923,-13.8719530106,19.702113562,-0.1438903213,1,0
"1692",19.0579185486,-15.2423534393,25.9531955523,0.1033871099,1,0
"1693",7.819589138,-8.154592514,11.3006546641,-1.7010971308,1,0
"1694",2.6490411758,-8.2487468719,9.5424266885,-1.6755166054,1,0
"1695",1.9972965717,-5.534740448,5.9604203986,-1.6733850241,1,0
"1696",5.7733440399,-3.3726365566,6.752047193,-2.2446804047,1,0
"1697",14.4063415527,-1.9815793037,14.6758904208,-1.8705670834,1,0
"1698",15.0281486511,-2.1234841347,15.3419399709,-1.7245453596,1,0
"1699",7.6865158081,-2.2597010136,8.165397805,-1.7362699509,1,0
"1700",5.9432411194,-2.9924271107,6.701381928,-1.5465487242,1,0
"1701",5.9317150116,-3.1639704704,6.8162828494,-1.4644781351,1,0
"1702",7.2828054428,-2.0032842159,8.1685380413,-1.5262973309,1,0
"1703",8.1307916641,-1.8540444374,8.9759845332,-1.5625362396,1,0
"1704",9.8608942032,-1.6955240965,10.8788305092,-1.6435408592,1,0
"1705",9.3447675705,-0.3043171763,10.6361563958,-1.7554553747,1,0
"1706",7.0687503815,-0.545615375,8.6651402621,-1.2790204287,1,0
"1707",6.9554362297,-1.0406359434,8.3298933431,-1.0669161081,1,0
"1708",7.3772587776,-2.1778211594,8.6235876724,-1.1084843874,1,0
"1709",8.9823713303,-1.1509566307,10.0391989138,-1.3280494213,1,0
"1710",9.826166153,-0.8364605904,10.9090565565,-1.3610907793,1,0
"1711",10.2179021835,-1.0045609474,10.8256998801,-1.0242820978,1,0
"1712",9.6874046326,-0.7943980694,9.9461168082,-0.8718656898,1,0
"1713",9.9381332397,-1.2005035877,10.1642655419,-0.8185731769,1,0
"1714",9.9053516388,-1.9877165556,10.2429241786,-0.8857218623,1,0
"1715",9.2898321152,-1.9778370857,9.7822093554,-0.9070385695,1,0
"1716",9.504784584,-1.2810360193,9.9280484916,-0.9006435275,1,0
"1717",9.8415842056,0.8713380694,10.4645750916,-0.7343711853,1,0
"1718",10.0372276306,0.0335302725,10.6212226885,-0.6245882511,1,0
"1719",9.8360462189,-0.1754351854,10.2198638776,-0.6075347066,1,0
"1720",9.0272779465,-1.6354990005,9.2337268273,-0.6576297879,1,0
"1721",9.192234993,-1.4239888191,9.3272179142,-0.5936787724,1,0
"1722",9.3510541916,0.4516108632,9.8476608985,-0.5606372356,1,0
"1723",10.5545520782,0.3221301138,11.3847105058,-0.6128639579,1,0
"1724",10.0493526459,0.1643582135,10.3117005934,-0.6054030657,1,0
"1725",10.0001049042,-0.3004252613,10.0353170451,-0.5499789715,1,1
"1726",9.4576330185,-0.3239263892,9.4698260108,-0.3442697525,1,0
"1727",8.6618871689,0.6262975931,8.7298377848,-0.2920430303,1,0
"1728",8.803194046,2.2007236481,9.4653439077,-0.4306038618,1,0
"1729",9.9876804352,1.1936178207,10.9585661386,-0.4689744115,1,0
"1730",11.1688737869,1.2536430359,11.779649054,-0.4508548081,1,0
"1731",10.7986936569,0.9364526272,11.0299009195,-0.1630754769,1,0
"1732",10.3966302872,1.4862593412,10.5912236715,0.0639507547,1,0
"1733",10.9998760223,1.1305989027,11.3825283081,0.2568693459,1,0
"1734",10.9370059967,1.3759387732,11.6705891872,0.4668420255,1,0
"1735",8.9932985306,2.5017476082,10.2672294396,0.4348665178,1,0
"1736",10.1813774109,1.4669494629,10.9914909744,0.3027010262,1,0
"1737",11.1895313263,-2.0938458443,11.5975746776,0.4391299784,1,0
"1738",9.8827486038,-2.8822562695,10.3744436827,1.0093593597,1,0
"1739",7.8570113182,2.7071204185,8.507341244,0.8782601953,1,0
"1740",9.5428056717,4.7565088272,10.9315270382,-0.1151119396,1,0
"1741",12.3565044403,5.8155565262,13.9215270062,-1.6307507753,1,0
"1742",14.7260770798,5.8911495209,15.886690416,-1.7767721415,1,0
"1743",18.7205200195,1.5702346563,18.8704626428,-1.1340645552,1,0
"1744",16.6733779907,-1.4380595684,16.8332328164,-0.7418320179,1,0
"1745",12.8706855774,1.8889219761,13.1819663347,-0.6139297485,1,0
"1746",12.5756492615,2.9401857853,12.9243138144,-0.3368089199,1,0
"1747",12.6692047119,0.7243437171,12.6899153191,0.0969917923,1,0
"1748",13.4436941147,-0.1573228389,13.5110507523,0.5105418563,1,0
"1749",13.119767189,0.0676593035,13.5987665851,1.0711787939,1,0
"1750",7.950117588,-1.7015117407,10.4830323225,1.490057826,1,0
"1751",7.07563591,-1.7540524006,10.052464,1.5348236561,1,0
"1752",6.6469278336,-1.9005976915,9.0497106348,1.6893719435,1,0
"1753",9.2744140625,-0.7689509392,9.6219132663,1.8972127438,1,0
"1754",10.6193666458,-0.6369255185,10.7752969865,1.7554545403,1,0
"1755",11.4948959351,0.0279917903,11.5878147449,1.7714422941,1,0
"1756",11.6447343826,-0.2655477822,11.6519102962,2.0496292114,1,0
"1757",11.026968956,-1.2618758678,11.1163234522,2.4301373959,1,0
"1758",10.6536455154,-1.8714083433,10.8851393864,2.5772249699,1,0
"1759",9.9861831665,-1.1050021648,10.6233623365,2.6433074474,1,0
"1760",9.8574514389,0.473764807,10.5983941355,2.5058131218,1,0
"1761",9.6556711197,-0.0345780961,10.2715287557,2.3448696136,1,0
"1762",9.2564506531,0.7978408933,9.6183639042,1.7138863802,1,0
"1763",8.3202981949,-2.377805233,8.6648276897,1.6616595984,1,0
"1764",8.1767463684,-4.3757004738,9.2783494521,1.9291880131,1,0
"1765",8.1405220032,-6.341562748,10.319168062,2.4152157307,1,0
"1766",7.2805600166,-5.8014855385,9.3279830947,2.7509582043,1,0
"1767",5.1814751625,-3.9944434166,6.5492116905,2.6347808838,1,0
"1768",5.4194803238,-3.2641122341,6.6544588213,2.3054330349,1,0
"1769",5.1495914459,-4.1689805984,7.5931803172,1.890817523,1,1
"1770",4.7604007721,-5.5938673019,8.0438897679,1.4410289526,1,0
"1771",3.9907011986,-5.6494021416,7.9325613442,1.1436564922,1,0
"1772",3.0009593964,-5.8908500671,7.4863306728,0.6320485473,1,0
"1773",2.0663030148,-7.9077558517,8.5157661076,0.023448335,1,0
"1774",2.2550606728,-8.4806146622,9.0972620943,-0.3069652617,1,0
"1775",3.1813344955,-5.9622516632,7.2993225306,-0.361323595,1,0
"1776",3.2608191967,-5.2605109215,6.5682963613,-0.718383193,1,0
"1777",3.1900162697,-5.4420833588,6.810265971,-1.1713695526,1,0
"1778",3.5179843903,-6.5611557961,7.6966971609,-1.6691212654,1,0
"1779",4.6541218758,-6.6788115501,8.3422809122,-1.7863647938,1,0
"1780",9.9358882904,-7.7164535522,13.494621053,-0.9017093182,1,0
"1781",19.4605808258,-10.906170845,24.5710204588,0.2952401638,1,0
"1782",14.8298110962,-9.6011838913,19.7708969624,0.3677181005,1,0
"1783",1.3259426355,-6.2433667183,6.4745451543,0.1929185838,1,0
"1784",0.0223036185,-5.8200473785,5.9292300806,0.0852677599,1,0
"1785",2.4923171997,-6.3619203568,6.9373542839,-0.019185679,1,0
"1786",4.3959088326,-6.5047235489,8.9110141794,-0.0085269092,1,0
"1787",6.5339126587,-7.414232254,11.6028572773,-0.2014460266,1,0
"1788",8.2405138016,-7.6640625,12.718976143,-0.7812684178,1,0
"1789",8.2837734222,-8.3282318115,12.5749850506,-0.8356267214,1,0
"1790",6.9220557213,-8.7566404343,11.6420471552,-0.2995041609,1,0
"1791",5.7871155739,-8.7350854874,11.1889790671,0.1172432676,1,0
"1792",4.7247748375,-8.130941391,10.0915982341,-0.0031979238,1,0
"1793",5.0386719704,-7.6032886505,9.6778614948,-0.2707262933,1,0
"1794",7.6483449936,-7.115752697,10.9203877016,-0.6203250289,1,0
"1795",8.1584844589,-7.3684272766,11.3698577995,-0.7428978682,1,0
"1796",9.9893274307,-7.1790709496,12.4973623926,-0.9550018311,1,0
"1797",9.9610357285,-5.4748649597,11.5456142537,-1.1276698112,1,0
"1798",9.983039856,-5.0545392036,11.3505932892,-1.1681718826,1,0
"1799",9.2420806885,-2.5783882141,9.9038129149,-1.0882331133,1,0
"1800",10.2913990021,-2.3153851032,10.8963763732,-0.9955042601,1,0
"1801",10.5960159302,-2.210303545,11.1610179297,-1.0210846663,1,0
"1802",10.5690717697,-1.9097286463,11.2366963032,-1.0615868568,1,0
"1803",9.3989543915,-2.3291563988,10.1453923333,-0.9720553756,1,0
"1804",8.5508184433,-2.0303778648,9.2651593508,-0.9475412369,1,0
"1805",7.4384818077,-3.4974770546,8.9403041895,-0.7311732769,1,0
"1806",8.1152238846,-3.2171099186,9.7424733381,-0.7237121463,1,0
"1807",8.7711601257,-2.4111859798,10.0172508218,-0.7833999991,1,0
"1808",9.3314447403,-0.8035290241,10.3700626989,-0.9443433285,1,0
"1809",9.6815671921,-0.0101788333,10.5386009935,-1.0743772984,1,0
"1810",10.4087553024,0.5278024077,11.2798706226,-1.0892989635,1,0
"1811",9.9316968918,-0.056732025,11.1819222467,-0.9006435275,1,0
"1812",8.5783615112,-1.9133212566,10.6971698762,-0.799387753,1,0
"1813",8.0400810242,-2.6991870403,10.3500065163,-0.8825238943,1,0
"1814",7.1070709229,-4.7765669823,9.5858145335,-0.9411459565,1,0
"1815",6.9819312096,-3.001408577,8.3420874836,-0.7812684178,1,0
"1816",7.3298077583,-2.4484584332,8.2982073215,-0.7482268214,1,0
"1817",8.5768642426,1.761985898,9.0573631724,-0.5649009347,1,0
"1818",8.0456190109,0.4879852235,8.4072519152,-0.3474671543,1,0
"1819",7.0687503815,-1.9562819004,7.9621178648,-0.5243985057,1,0
"1820",7.697892189,-2.3766078949,8.952109181,-0.7130539417,1,0
"1821",8.8742961884,-0.9815089703,9.6049691373,-0.7514247298,1,0
"1822",9.1926841736,-0.2529739439,9.5607114628,-0.6331151724,1,0
"1823",9.7541656494,-0.9184899926,10.1679173518,-0.4892253578,1,0
"1824",10.0572853088,0.9635462761,10.3540658824,-0.6086007357,1,0
"1825",10.2818183899,1.5717315674,10.5500675145,-0.5808884501,1,0
"1826",11.6704807281,2.5991950035,12.0033221415,-0.345335573,1,0
"1827",15.1173629761,3.3843123913,15.6733402621,-0.2344873399,1,1
"1828",18.4938926697,4.5038342476,19.3847387634,-0.2952409685,1,0
"1829",17.9008255005,3.6066000462,18.4826760499,-0.5094768405,1,0
"1830",14.9233665466,1.7474660873,15.0938323909,-0.1822606176,1,0
"1831",12.5657691956,0.9639953375,12.8743179289,0.4156810939,1,0
"1832",11.108250618,1.2223581076,11.6221795711,0.5958098769,1,0
"1833",10.3271741867,1.9860699177,10.7131560829,0.5755586624,1,0
"1834",10.5919742584,2.2364990711,11.0333488564,0.542517364,1,0
"1835",9.6742324829,1.4900015593,10.1444676999,0.6949337721,1,0
"1836",9.4127264023,0.0770896897,9.8526156753,0.9251573682,1,0
"1837",9.4896659851,-0.3694317639,9.8906512268,1.1468544006,1,0
"1838",9.5667562485,-0.3899391294,9.8775233654,1.3642876148,1,0
"1839",9.7035713196,0.3821552992,9.8279821631,1.6723184586,1,0
"1840",9.6535749435,1.0045609474,9.7386600376,2.0133903027,1,0
"1841",9.5648097992,0.7978408933,9.6053845564,2.3736474514,1,0
"1842",10.8230934143,1.0160870552,10.8904561669,2.8170411587,1,0
"1843",11.589050293,-0.4411326647,11.6415169803,3.2678956985,1,0
"1844",10.479557991,-2.1338126659,10.7649878769,3.3606247902,1,0
"1845",9.4016494751,-1.1569441557,9.6521046453,3.3297147751,1,0
"1846",9.2214241028,-0.8415499926,9.3930920805,3.3531637192,1,0
"1847",9.622590065,-1.765728116,9.9167551843,3.2529737949,1,0
"1848",8.7808904648,-3.367846489,9.8067968037,2.8330292702,1,0
"1849",8.6451225281,-4.0137534142,10.1156942672,2.6742174625,1,0
"1850",8.7632265091,-4.6774730682,10.5689193811,2.6774148941,1,0
"1851",8.5104026794,-4.5231442451,10.1542996925,2.6678221226,1,0
"1852",7.6568775177,-5.3262238503,9.6527349994,2.3693842888,1,0
"1853",7.1153035164,-4.9371829033,8.9981140704,2.0613534451,1,1
"1854",6.3411135674,-5.1991381645,8.5653610462,1.9537026882,1,0
"1855",5.2049760818,-5.6604790688,7.7228217254,1.7778373957,1,0
"1856",4.0550675392,-5.6625747681,7.0166417258,1.6136966944,1,0
"1857",3.6637811661,-6.4390101433,7.4144357762,1.4570167065,1,0
"1858",3.9402561188,-7.5772428513,8.6930857752,1.2406489849,1,0
"1859",4.3047480583,-7.9831986427,9.4095984294,1.0189523697,1,0
"1860",4.4683580399,-7.7652521133,9.2452669149,0.8175065517,1,0
"1861",4.192032814,-6.5575633049,7.853677129,0.5116078854,1,0
"1862",3.112477541,-7.0163593292,7.6913011039,0.1694697291,1,0
"1863",2.7068212032,-7.5272469521,8.0914369319,-0.0405026861,1,0
"1864",3.4643957615,-7.6594219208,8.5500031767,-0.2195653766,1,0
"1865",3.6378850937,-7.9794564247,8.9084135941,-0.5020157099,1,0
"1866",4.2819957733,-8.5394420624,9.6745775234,-0.7780709863,1,0
"1867",4.8659310341,-8.0677728653,9.4546514619,-0.8420220017,1,0
