"","accelY","accelZ","accelMag","gyroX","risk","step"
"1",7.2058653831,0.9198371768,7.9797653359,0.071411334,0,0
"2",6.664141655,1.6293617487,8.1149563261,-0.0959267989,0,4
"3",7.1423974037,0.1565743983,8.1922975418,-0.0703463331,0,0
"4",10.1625165939,-0.7298821807,11.1840037418,0.0405018851,0,0
"5",10.8153095245,-0.1615141332,12.3250055464,0.1641407311,0,0
"6",12.0015926361,-1.0389894247,13.4528516505,0.6054022908,0,0
"7",17.0172119141,-2.9568014145,17.8499896736,1.0850349665,0,0
"8",17.2345600128,-2.4063959122,18.0542623882,1.7341378927,0,0
"9",11.6695833206,-1.9393670559,12.1513235117,2.523932457,0,0
"10",7.9209284782,-5.567522049,9.7082847845,2.9907746315,0,0
"11",6.2441153526,-7.6184072495,9.851795215,2.9886431694,0,0
"12",7.0397109985,-5.8779768944,9.1737647116,2.4013595581,0,0
"13",9.9837884903,-2.9864397049,10.4984184164,1.9057394266,0,0
"14",14.6323719025,-1.0967692137,15.4999483169,1.7234790325,0,0
"15",14.1755218506,-2.6881101131,16.2872835135,1.0445325375,0,0
"16",7.4841365814,-2.2179377079,11.7308531249,0.4593811631,0,0
"17",3.6440222263,-4.1848473549,8.7011970836,0.089531213,0,0
"18",3.6492612362,-4.3496546745,6.9092301373,-0.2078410834,0,0
"19",4.1141943932,-4.189637661,6.2339368776,-0.6160613298,0,0
"20",4.7045669556,-4.637506485,6.6384250722,-0.9486070871,0,0
"21",5.2310218811,-3.5416350365,6.5210921589,-1.0530599356,0,0
"22",5.5254597664,-1.9925065041,5.911843855,-1.0882331133,0,0
"23",4.3667192459,-1.1223660707,4.5881192738,-1.048796773,0,1
"24",4.1016206741,-1.7188755274,4.6195725221,-1.0829041004,0,0
"25",4.8156356812,-2.345772028,5.5208528722,-1.3035347462,0,0
"26",6.3982944489,-2.8186385632,7.197611455,-1.565734148,0,0
"27",8.1321392059,-3.0394294262,9.0008069842,-1.7948914766,0,0
"28",9.615105629,-2.7782225609,10.2877102762,-1.8194061518,0,0
"29",9.6044769287,-2.695744276,10.2212288093,-1.4921902418,0,0
"30",10.7660617828,-4.0418949127,11.5877034751,-0.9113017917,0,0
"31",11.4225969315,-6.1261606216,12.9639033442,-0.8239024282,0,0
"32",9.4173660278,-5.2540740967,10.9707046897,-0.8814581037,0,0
"33",8.4077157974,-4.5583209991,9.6918384313,-0.8068488836,0,0
"34",8.2578773499,-3.911665678,9.1456316417,-0.5126742125,0,0
"35",9.6883029938,-5.9249787331,11.3961555022,-0.2696605027,0,0
"36",10.0951566696,-6.079308033,11.8170202578,-0.2845821977,0,0
"37",11.7222738266,-6.0954742432,13.2350771379,-0.0767413825,0,0
"38",14.9501609802,-3.8607714176,15.6128605186,0.316557169,0,0
"39",15.6541471481,3.1548395157,16.044720142,-0.367718637,0,0
"40",17.0272407532,5.4236712456,17.926369008,-0.1652070731,0,0
"41",16.8474655151,-0.7610174417,17.4578069761,0.5787560344,0,0
"42",12.8798160553,-1.6271164417,16.1400615524,-0.2121042758,0,0
"43",13.7375326157,-1.313668251,18.619599449,-0.3538624644,0,0
"44",12.3672819138,1.6555572748,15.0349882874,-0.4998838603,0,0
"45",9.8296089172,0.6725513935,10.711718864,-0.5105426311,0,0
"46",8.423283577,-0.616268456,8.4607062057,-0.7375686169,0,0
"47",8.6172800064,-0.005388794,8.6189770885,-0.7951242924,0,0
"48",8.8028945923,0.5969586372,8.9630900211,-1.0626527071,0,0
"49",8.3408050537,-3.3145573139,9.3562532291,-1.3014031649,0,0
"50",7.4576416016,-1.8670674562,8.2078251044,-1.0285458565,0,0
"51",6.3273420334,1.4828164577,7.1682058352,-0.567032516,0,0
"52",6.3800325394,0.5203179717,6.8506187215,-0.3570598662,0,0
"53",6.8594856262,-0.4164340198,7.2013413875,-0.5617030263,0,0
"54",7.4711136818,-1.5488291979,8.2966690182,-0.6299177408,0,0
"55",7.2155952454,-2.7963349819,8.5881018371,-0.364520967,0,0
"56",7.0952453613,-2.5991950035,8.241330302,0.2739231586,0,1
"57",7.6103243828,-1.512005806,8.4829041838,0.4838958383,0,0
"58",10.3401975632,-1.2000545263,11.2587503947,0.21316953,0,0
"59",9.2911787033,0.8834628463,10.1873831713,0.2270256877,0,0
"60",6.7214727402,0.22198838,7.6358625239,0.1641407311,0,0
"61",7.7276802063,-1.1078462601,8.4560740293,0.1374944746,0,0
"62",9.3949127197,-0.5376818776,10.0299630454,0.0117240343,0,0
"63",8.8933067322,0.4061054885,9.5905040506,-0.0639515519,0,0
"64",6.2824354172,0.260608077,7.2910540805,-0.1033876389,0,0
"65",7.1950879097,-1.9559825659,7.9664897032,-0.0309099797,0,0
"66",11.032957077,-3.6625835896,12.066585185,0.1438895315,0,0
"67",13.8574333191,-2.8392956257,14.8827176629,0.4124836922,0,0
"68",14.4470567703,-0.7104226947,15.7220351197,1.0146888494,0,0
"69",17.6325836182,-0.7997868061,19.7445470308,2.0975925922,0,0
"70",16.8179759979,-1.3091775179,17.8302397615,2.184992075,0,0
"71",15.2898044586,-1.6241226196,15.8209577415,2.0848023891,0,0
"72",12.3547086716,-0.1441502422,12.5464840041,1.8375250101,0,0
"73",11.1190280914,-1.4757810831,11.4556926852,1.4452922344,0,0
"74",10.7891139984,-3.2394134998,11.9705907935,1.112746954,0,0
"75",11.5577659607,-2.2911355495,12.4283057499,0.4359323084,0,0
"76",10.1601219177,-0.15492782,11.2655176589,0.2248941064,0,0
"77",9.0334148407,-0.3841012716,9.962456609,0.12150646,0,0
"78",6.5613055229,-1.6188834906,6.9115685054,-0.16840446,0,0
"79",5.2232379913,-2.7464885712,5.9044793921,-0.2408821285,0,0
"80",4.7975234985,-2.9160859585,5.6143024023,-0.3016357422,0,0
"81",4.3275008202,-2.7746300697,5.141482389,-0.5382546782,0,0
"82",5.0231041908,0.3692820668,5.1751641363,-0.9827138782,0,0
"83",5.657784462,0.2957849205,5.890951699,-1.126603961,0,0
"84",5.8869581223,-1.4215937853,6.1613776061,-1.2395837307,0,4
"85",5.1726436615,-2.6565256119,5.8733391545,-1.5369558334,0,0
"86",4.1715254784,-2.0499870777,4.6771671596,-1.8130110502,0,0
"87",4.9810419083,-1.640288949,5.2577305145,-1.8737645149,0,0
"88",8.2970962524,-1.256636858,8.5129349966,-1.6851090193,0,0
"89",13.1094388962,-1.5383509398,13.5293012454,-1.1660403013,0,0
"90",14.4463090897,-3.9898030758,15.5450807696,-0.644839704,0,0
"91",9.9046030045,-6.2869262695,12.2548538245,-0.5212011337,0,0
"92",8.867559433,-5.591173172,11.4409261273,-0.0522267185,0,0
"93",8.4836082458,-6.8934650421,13.0997641506,0.4689736068,0,0
"94",11.8686685562,-7.5068893433,14.9058640788,0.5073441863,0,0
"95",15.9223890305,-1.5358062983,16.2767564426,0.0277120546,0,0
"96",17.11510849,6.4911017418,18.3073923324,-0.6810786724,0,0
"97",18.2299900055,6.9305877686,19.5048853305,-0.1822606176,0,0
"98",12.196187973,0.6480024457,12.8869620743,0.6256537437,0,0
"99",9.8489189148,-4.8823971748,14.022818362,0.863338232,0,0
"100",7.2004766464,-3.0563442707,11.5727599116,0.1630749404,0,0
"101",9.6296253204,-2.0968396664,10.4966875937,-0.8132436275,0,0
"102",12.3403377533,2.9428801537,12.7128334624,-1.4783343077,0,0
"103",9.2516613007,4.5015888214,10.3034850511,-1.3024690151,0,0
"104",8.7813386917,3.2834219933,9.3754890823,-0.9763191342,0,0
"105",11.1386375427,-3.8020935059,12.8166913876,-1.1457891464,0,0
"106",8.7488565445,-2.9089009762,10.3502991564,-0.7642148733,0,0
"107",8.0543012619,-2.239792347,9.2749067523,-0.5755594373,0,0
"108",6.9466042519,-0.9822573662,7.1142732954,-0.4444597363,0,0
"109",7.8981757164,-0.8378077745,8.128449632,-0.5329251885,0,0
"110",8.0215187073,-1.2476555109,8.4770566172,-0.5702299476,0,0
"111",8.6355419159,0.4863386452,9.5881235728,-0.4785668552,0,0
"112",7.8591070175,1.3266911507,8.8096906364,-0.3549282551,0,0
"113",7.4027061462,1.1635304689,8.3036534553,-0.3666528463,0,0
"114",9.5426559448,-1.7196240425,10.8842162619,-0.3570598662,0,1
"115",8.4096622467,-1.2744498253,9.1225591034,-0.0095932391,0,0
"116",5.3762202263,-0.1695973277,5.4845454089,0.2248941064,0,0
"117",7.5943074226,-1.6962726116,8.1810291141,0.3687838912,0,0
"118",11.5071706772,-1.08913517,12.42577818,0.4167468846,0,0
"119",7.7405533791,1.6064593792,9.6917876569,0.3250840902,0,0
"120",6.5494804382,-0.3267704844,7.7816630181,0.4348665178,0,0
"121",6.6454305649,-0.3350033462,7.5149803599,0.5680978298,0,0
"122",10.1256933212,0.6524931192,10.9576342303,0.2760547698,0,0
"123",11.3621225357,0.1577719152,11.8926786837,0.0959259942,0,0
"124",12.0529356003,-0.8669970632,13.817156667,0.2675278485,0,0
"125",14.1416921616,-4.0853047371,16.8369389566,1.0679813623,0,0
"126",16.0213336945,-2.3646326065,17.6314919061,1.8897516727,0,0
"127",14.7172451019,0.6204597354,15.0284616656,1.7021620274,0,0
"128",14.649435997,-1.1551479101,14.6949999551,1.6318160295,0,0
"129",13.5728750229,-0.5893244743,13.5884334296,1.7160181999,0,0
"130",12.8895463943,-2.7448420525,13.4173967309,1.8119444847,0,0
"131",11.7438287735,-2.7306215763,12.9351621718,1.5305602551,0,0
"132",11.2039012909,-1.1590397358,12.9689964914,0.9198281169,0,0
"133",11.0133476257,-0.112865299,12.5640109088,0.5286614299,0,0
"134",10.1613197327,-0.2210902423,11.2359144406,0.3666523099,0,0
"135",8.5163898468,-0.866697669,8.8717034893,0.4892248213,0,0
"136",6.9642677307,-2.9600944519,7.5678041631,0.6789460182,0,0
"137",6.6357011795,-3.8836739063,7.7849359936,0.5531755686,0,1
"138",6.1273579597,-3.1272966862,6.9399104699,0.0799382403,0,0
"139",6.0921812057,-1.8308427334,6.3660071279,-0.3986280859,0,0
"140",5.8692946434,-0.9418414235,6.0328063538,-0.6938685179,0,0
"141",5.0121769905,-0.8268805146,5.2324368205,-0.8739972711,0,0
"142",4.3942623138,-1.1548484564,4.6637852265,-0.9571337104,0,0
"143",4.0237827301,-1.4215937853,4.4959987229,-1.0328090191,0,0
"144",4.5273351669,-1.8636245728,5.0432652653,-1.1543160677,0,0
"145",6.580016613,-1.7357903719,7.0104526407,-1.360024929,0,0
"146",9.6498327255,-1.3572276831,10.1290132081,-1.5667999983,0,0
"147",12.1425991058,-2.2405407429,13.2080375245,-1.6168946028,0,0
"148",11.6617994308,-4.3782453537,13.085487399,-1.324852109,0,0
"149",10.1119222641,-6.2041482925,12.1593807474,-0.7151857615,0,0
"150",10.6422691345,-6.2644729614,13.0363191767,-0.06501735,0,0
"151",9.2687253952,-5.4488191605,11.6500335562,0.3687838912,0,0
"152",8.4842071533,-4.1197328568,10.1718659994,0.3218864202,0,0
"153",9.0841598511,-3.6121385098,10.0153153442,0.0692797378,0,0
"154",11.0455303192,-2.9183313847,11.6600698803,-0.3602577746,0,0
"155",13.6083517075,0.0229023751,13.7509188258,-0.4476574063,0,0
"156",13.0263614655,3.3004865646,13.6286145936,-0.06501735,0,4
"157",17.5762996674,-3.347638607,19.1319208525,0.7770041227,0,0
"158",17.6945533752,-2.2391936779,20.1935391206,0.8015187979,0,0
"159",7.8830571175,0.0065863039,9.5767062507,0.6213903427,0,0
"160",5.8657021523,0.1675016731,7.1478982357,0.7215800285,0,0
"161",8.3005390167,0.6304888725,8.8315237339,0.3261498809,0,0
"162",10.6123313904,0.0532891862,10.7050629803,-0.2494090348,0,0
"163",10.4011211395,-1.2522958517,10.550412095,-0.5798226595,0,0
"164",10.5817947388,2.8114535809,11.0365848771,-0.7418320179,0,0
"165",9.9712142944,0.5191204548,10.837385701,-0.8494828939,0,0
"166",8.9519844055,-0.3067121804,10.7497799873,-0.8793265224,0,0
"167",7.7398052216,-0.4990621805,9.9126048598,-0.6022056937,0,0
"168",7.7794723511,-1.9467017651,9.3846520138,-0.6235224605,0,0
"169",7.2310128212,-2.5848248005,8.0143946843,-0.610732317,0,0
"170",9.062005043,-0.9259744287,9.1955833946,-0.5350567698,0,0
"171",8.9696474075,-0.7529342771,9.1165042154,-0.4508548081,0,0
"172",8.2265930176,-0.2088157684,8.5002993363,-0.2195653766,0,0
"173",6.3553338051,-0.7146139741,7.9247781524,-0.1492193192,0,0
"174",6.0625429153,-1.3043875694,7.8068282635,0.0021315941,0,0
"175",6.951394558,-0.8987310529,7.965219471,0.1673381329,0,0
"176",10.6681652069,-1.2397220135,11.3369510337,0.1684039235,0,0
"177",7.5967025757,-1.3852194548,7.8881198646,0.3549277484,0,0
"178",6.5562162399,-1.5308665037,6.8355845333,0.4135495126,0,0
"179",7.209757328,-1.3659095764,7.8197761527,0.5105418563,0,0
"180",9.6169013977,-0.2649490237,10.4851867089,0.371981293,0,0
"181",9.9908237457,0.6559360027,11.2616723437,0.1929185838,0,0
"182",8.2982940674,-1.2153227329,10.153422458,0.1257701814,0,0
"183",8.1864757538,-3.8919067383,10.8743405197,0.3474666178,0,0
"184",11.8932180405,-4.3507027626,14.1893099668,0.9560668468,0,0
"185",17.3468265533,-0.6638695002,19.1467161864,1.1766979694,0,0
"186",17.8518772125,1.1394305229,19.3520631937,1.250241518,0,0
"187",15.227684021,-3.6336936951,15.7117955501,1.8428544998,0,0
"188",14.3241624832,-3.3462913036,14.7219867104,2.2819843292,0,0
"189",10.792257309,-2.2379961014,11.0630561991,1.658462286,0,0
"190",10.2580184937,-2.7357110977,11.3429206986,1.1820272207,0,0
"191",10.8054304123,-2.0995340347,11.7840135809,1.3205878735,0,0
"192",11.3594284058,-0.824635148,11.8139260052,1.3898681402,0,0
"193",11.5407009125,-0.6041436791,11.9119567811,1.1649737358,0,0
"194",10.4098024368,-2.9660820961,11.2122317959,0.8388235569,0,0
"195",7.2227802277,-4.3001079559,8.9160663248,0.6352464557,0,0
"196",7.193590641,-3.566034317,8.6271518842,0.1193748638,0,0
"197",7.2049670219,-2.2556593418,8.3182440394,-0.4210111499,0,0
"198",6.6624951363,-1.8170714378,7.6228547127,-0.8494828939,0,0
"199",5.4202284813,-0.9621990919,5.9327977885,-1.1287355423,0,1
"200",4.490811348,-1.3672567606,4.8427865331,-1.2896789312,0,0
"201",4.3219623566,-2.3962171078,4.9591720684,-1.3387076855,0,0
"202",3.7001554966,-2.6934988499,4.5769068429,-1.3696177006,0,0
"203",4.0011796951,-1.8851797581,4.4230894975,-1.349366188,0,0
"204",4.7398934364,-1.9303857088,5.1923323954,-1.2726253271,0,0
"205",5.822142601,-2.8886928558,6.8610406821,-1.2630326748,0,0
"206",10.0096845627,-3.0548474789,11.2202076085,-1.2150690556,0,0
"207",14.8799571991,-2.7253825665,16.1147447252,-1.0040311813,0,0
"208",12.2406454086,-3.2623159885,13.8491619201,-0.5894150734,0,0
"209",10.7892637253,-3.2108230591,12.0467280714,-0.3964964747,0,0
"210",10.1324291229,-5.6253023148,12.3935451073,-0.1310997009,0,0
"211",10.384355545,-7.3989639282,14.2645521314,-0.0916636065,0,0
"212",13.1046485901,-8.8240003586,17.1025252056,-0.2099726796,0,0
"213",15.8542804718,-5.4173846245,17.7851077757,-0.1737339795,0,0
"214",13.6902313232,-1.3942008018,14.8211268803,0.4039570689,0,1
"215",8.5719242096,1.346001029,9.9020648383,0.409286052,0,0
"216",5.705385685,0.1460961848,5.8813876875,-0.0341073722,0,0
"217",6.2608804703,1.1756552458,6.4000592348,-0.1225730553,0,0
"218",9.3693161011,3.1524443626,9.8980097148,-0.6586956382,0,0
"219",12.894036293,2.8316614628,13.7672006006,-1.360024929,0,0
"220",13.5077600479,-0.307610333,16.3936670497,-1.6094340086,0,0
"221",13.2776889801,-3.2603700161,15.0177192299,-0.8505486846,0,0
"222",11.2015066147,-0.6524931192,12.0688131148,-0.5371888876,0,0
"223",9.4398193359,1.0714718103,9.8579932452,-0.4711059928,0,0
"224",9.1393947601,-0.1989363134,9.17917718,-0.6618932486,0,0
"225",8.4171466827,-1.9017951488,8.7058570176,-0.6000741124,0,0
"226",8.6337461472,-1.6607964039,9.1836951026,-0.610732317,0,0
"227",9.5592718124,1.306183815,10.7907729399,-0.7716757059,0,0
"228",8.8861207962,-0.68467623,10.4125418672,-0.6533666253,0,0
"229",7.1612582207,-2.769241333,8.4664434128,-0.3943648934,0,0
"230",6.3327312469,-2.0869600773,7.4227818628,-0.2121042758,0,0
"231",6.0851459503,-1.2365784645,6.9084245529,-0.1353634149,0,0
"232",6.2248053551,0.3019221425,6.6888058537,-0.0714121312,0,0
"233",8.6144361496,-0.6610254049,9.2948223509,-0.2025118321,0,0
"234",11.5838117599,-1.5673905611,12.1834685089,-0.0106590362,0,0
"235",10.6880741119,-1.2620255947,11.281224301,0.0852677599,0,0
"236",6.2435164452,-2.007625103,7.2489557501,0.2803182006,0,0
"237",6.3259949684,-1.3832734823,6.7118099831,0.5627682805,0,0
"238",10.1505422592,-0.0664617941,10.6384192602,0.508409977,0,0
"239",10.8551263809,-0.1740879864,11.6792655129,0.2462111115,0,0
"240",8.9697971344,-1.1346404552,9.8953234946,0.2483427078,0,0
"241",8.5068101883,-3.2049851418,10.2186100102,0.5979414582,0,0
"242",11.021730423,-2.9843440056,13.0962191418,0.7247776985,0,0
"243",12.7040815353,-0.8885522485,14.6735841448,0.7290411592,0,0
"244",13.3371152878,-0.7994874716,14.9388202419,1.065849781,0,0
"245",13.3308286667,-1.9758911133,14.0444268628,1.5614699125,0,0
"246",11.6043186188,-2.3875350952,12.1353765703,1.7639814615,0,0
"247",12.4838895798,-2.8243267536,12.9957450359,2.004863739,0,0
"248",12.9811553955,-2.5475523472,13.6739362285,2.0837366581,0,0
"249",12.8964319229,-3.6473152637,14.5561866009,1.9696904421,0,0
"250",11.7701740265,-3.3792228699,14.0266247031,1.5369552374,0,0
"251",10.690618515,-2.5027954578,13.1399840064,0.8313627243,0,0
"252",10.8028850555,-1.7699193954,12.6491504489,0.0554241091,0,0
"253",10.2747831345,-0.8680449128,11.3459995026,-0.3602577746,0,0
"254",8.3291292191,-0.7631130815,9.1876361863,-0.4604474902,0,0
"255",6.7288074493,-2.2960753441,7.3509473229,-0.442328155,0,4
"256",5.5139336586,-3.8202059269,6.7112390453,-0.6022056937,0,0
"257",5.7139177322,-3.5970199108,6.8304101538,-0.9059727788,0,0
"258",4.479434967,-1.505120039,4.7764184013,-1.2108058929,0,0
"259",4.5740380287,-1.0591974258,4.8035748442,-1.2768884897,0,0
"260",4.7669868469,-0.9105564952,4.932580356,-1.3802762032,0,0
"261",4.6593608856,-1.407523036,5.0027545971,-1.3941317797,0,0
"262",5.8035812378,-2.3902294636,6.4014967241,-1.4623465538,0,0
"263",7.1928424835,-2.4146287441,7.7171251077,-1.4964536428,0,0
"264",7.6986408234,-2.4815397263,8.220354395,-1.4666099548,0,0
"265",7.7496843338,-1.9531384706,8.4542815427,-1.2747569084,0,0
"266",10.4752168655,-2.5959017277,11.9038000114,-0.9283555746,0,0
"267",13.507610321,-3.508254528,15.0805338304,-0.9081043601,0,0
"268",13.3396596909,-4.7895898819,15.185276952,-0.9081043601,0,0
"269",8.7216129303,-6.2212128639,11.2672583551,-0.4785668552,0,0
"270",7.7270812988,-5.3343071938,11.1998277651,-0.1545485705,0,0
"271",7.7598633766,-4.6114602089,11.1074220467,-0.1843922138,0,0
"272",14.8600482941,-1.8405724764,15.7217915135,-1.0392041206,0,0
"273",18.3034877777,0.6511459351,18.4398849755,-0.924092412,0,0
"274",19.1254291534,-1.8723064661,19.2238425354,-0.1364292204,0,0
"275",14.551240921,-5.0518445969,15.5427714237,0.272857368,0,0
"276",5.9853034019,-0.2627037168,6.6763529346,-0.1342976242,0,0
"277",6.9428620338,1.601968646,7.5713550019,0.1332307607,0,0
"278",7.6806778908,2.3523583412,8.685414455,0.1268359721,0,0
"279",11.1028614044,4.1475749016,12.2377419936,-0.2366189361,0,0
"280",11.3546380997,3.3024325371,12.6117677746,-1.2065427303,0,0
"281",10.620265007,0.3079096973,12.0189352052,-0.9741872549,0,0
"282",10.3810625076,-0.4143383801,11.8119955611,-0.7951242924,0,0
"283",9.0892486572,0.5824388266,9.7277531274,-0.755687952,0,0
"284",8.917555809,0.6888675094,9.0913502257,-1.0829041004,0,0
"285",8.6726646423,0.7987390161,8.7881991763,-1.1543160677,0,0
"286",9.9183750153,-0.7954458594,10.0466551571,-0.7631490231,0,0
"287",9.83963871,-1.360221386,10.3368560775,-0.5361225605,0,0
"288",9.0596103668,-1.01324296,9.9484472856,-0.3719818294,0,0
"289",8.4225349426,-0.1534309387,9.2834207071,-0.147087723,0,1
"290",8.1117811203,0.1338217109,8.9271184208,0.0458314046,0,0
"291",8.0779514313,-0.0059875487,8.8528772709,0.1939843893,0,0
"292",7.636370182,-0.0934057608,8.3750842645,0.2867135406,0,0
"293",7.197183609,-1.0565029383,7.8707295298,0.4007591307,0,0
"294",7.1995782852,-1.8625767231,8.2059323693,0.899576962,0,0
"295",7.748187542,-0.9301657081,8.1970336387,1.1244713068,0,0
"296",7.6874141693,0.3740721047,7.9614238497,0.8761286139,0,0
"297",6.2971053123,0.6653663516,6.9478778371,0.5659661889,0,0
"298",7.276368618,1.0204280615,8.7072722109,0.3879690468,0,0
"299",9.3077945709,0.639919281,11.6450010126,0.089531213,0,0
"300",9.5031385422,-0.6116281152,11.8625808826,-0.1897217333,0,0
"301",9.0578145981,-1.4886543751,10.5246920217,-0.1630754769,0,0
"302",9.4477529526,-2.0532801151,10.9071943426,0.2558035553,0,0
"303",11.3598766327,-2.4207658768,12.7359637621,0.8047164679,0,0
"304",13.9951467514,-3.1217582226,15.1662408678,1.4335678816,0,0
"305",17.5538463593,-2.7452912331,18.3797974844,1.7277425528,0,0
"306",17.7897567749,0.4215234518,18.0899976882,1.8268665075,0,0
"307",14.3017091751,-0.5385800004,14.3217583575,1.9206610918,0,0
"308",12.5100851059,-2.9930260181,13.0367036746,1.6893719435,0,0
"309",12.3376436234,-3.9224431515,13.6728961672,1.1585786343,0,0
"310",10.8356666565,-2.5566833019,12.2062387243,0.8004530072,0,0
"311",10.5576953888,-1.62307477,11.4328303576,0.6384438872,0,0
"312",10.1783838272,-0.7478448749,10.9417622136,0.5105418563,0,0
"313",8.3176031113,-1.7934205532,8.9732505857,0.6469707489,0,0
"314",6.3168640137,-3.5363960266,7.2500444608,0.443393141,0,0
"315",5.9059686661,-3.8130207062,7.1028306288,0.175864771,0,1
"316",5.7877144814,-2.1281244755,6.1827883265,0.0362386964,0,0
"317",5.8209452629,-1.1567944288,5.9495688402,-0.0596878305,0,0
"318",5.5754556656,-1.2804373503,5.8609704859,-0.2227627784,0,0
"319",5.1412086487,-2.1811144352,5.870641512,-0.5137400031,0,0
"320",5.0473537445,-2.2436842918,5.731114097,-0.8228366375,0,0
"321",5.6711068153,-1.9952009916,6.3659912483,-1.0541257858,0,0
"322",6.6937804222,-1.9745439291,7.7457438441,-1.2374521494,0,0
"323",7.605234623,-3.7059934139,9.3499159865,-1.3088639975,0,0
"324",8.4782190323,-4.7692322731,10.6525263839,-1.4442269802,0,0
"325",9.5035867691,-4.1959247589,11.5234514036,-1.3504322767,0,0
"326",10.5156326294,-3.6148328781,11.9907457908,-0.9358164072,0,0
"327",10.5713167191,-4.0734791756,11.3825906432,-0.2781874239,0,0
"328",10.5358409882,-4.4629693031,11.4648890012,-0.2845821977,0,0
"329",11.7079029083,-6.9680099487,13.9036009591,-0.4242085516,0,0
"330",13.3146619797,-7.1123099327,15.5716138756,-0.4071549773,0,0
"331",18.8453617096,-4.6758265495,19.858096438,-0.0373052955,0,0
"332",19.5488986969,-2.5474026203,19.8793848347,0.6800121069,5,4
"333",8.4027767181,1.4904506207,10.4035520063,1.0733106136,0,0
"334",2.414778471,3.7694613934,6.1883830972,0.5148052573,0,0
"335",3.0424232483,4.3231601715,5.9303262841,0.3847716451,0,0
"336",7.1914954185,3.2205529213,8.8484378966,-0.0810051039,0,0
"337",11.5234870911,1.7003141642,12.6093743949,-0.4316696525,0,0
"338",12.8606557846,-0.3228785694,13.415682802,-0.958199501,0,0
"339",10.937754631,-1.8760486841,11.3893248519,-1.1244717836,0,0
"340",10.2908000946,-1.5973283052,10.7526429942,-0.8409562111,0,0
"341",9.6469888687,-1.1888278723,10.2772728553,-0.7098565102,0,0
"342",8.3439483643,0.2252815217,9.0598043708,-0.6491029263,0,0
"343",7.2205348015,0.8303233385,7.7780720912,-0.7045270205,0,0
"344",7.0780310631,0.843495965,7.7956698601,-0.8612071872,0,0
"345",9.0157518387,-0.5300477743,9.9077166606,-0.9464749098,0,0
"346",9.4086847305,-0.4942721426,10.3533422703,-0.7844657898,0,0
"347",8.7463121414,-0.3508703709,9.4175150891,-0.5979419947,0,0
"348",8.8831272125,-0.3408412039,9.667140116,-0.4679086208,0,0
"349",8.3167057037,-1.1976594925,9.0394503313,-0.3240188062,0,0
"350",8.4427433014,-1.240021348,9.0641494828,-0.0223830696,0,0
"351",8.9241418839,-0.2513273656,9.3524223576,0.1694697291,0,0
"352",8.1029500961,-0.2655477822,8.5011492682,0.160943076,0,0
"353",7.8742256165,-0.607586503,8.3778718039,0.1769305766,0,0
"354",7.9120965004,-0.6771917939,8.6629890073,0.5009493828,0,0
"355",8.6829938889,-0.0809815973,9.4806071658,0.6970653534,0,0
"356",8.8584289551,-1.1286529303,9.8007508905,0.4956198633,0,0
"357",8.7620296478,-0.3686833084,9.6322311387,0.350664556,0,1
"358",8.7383785248,1.1858340502,9.5101874088,0.1801284999,0,0
"359",8.0890283585,1.2457095385,9.0112801963,0.0873993561,0,0
"360",7.7839632034,-1.344504118,9.2908791064,0.1470869184,0,0
"361",10.3776197433,-5.0772914886,12.7462230399,1.5945112705,0,0
"362",14.4928617477,-2.9446763992,15.7892726939,1.8641712666,0,0
"363",15.4168901443,0.1552271992,16.910595235,1.9718220234,0,0
"364",15.8358688354,-1.7007632256,16.400472383,2.2894456387,0,0
"365",15.1728973389,-1.0924283266,15.2799942967,2.4663763046,0,0
"366",13.9539823532,-0.0489482135,13.960629281,2.3011698723,0,0
"367",11.2788953781,-3.9844143391,12.9092402285,1.6435402632,0,0
"368",10.6990013123,-2.4510030746,12.4015686274,1.2491756678,0,0
"369",10.5502109528,-2.2553598881,11.8600845627,1.0637181997,0,0
"370",10.3912410736,-0.856967926,10.9705064894,0.4210106134,0,0
"371",9.5938491821,-1.5679893494,9.9847433055,0.2440795153,0,0
"372",8.2203054428,-2.3090982437,8.633184116,0.2781866193,0,0
"373",5.5760545731,-4.0460863113,6.8909931387,0.1961159855,0,0
"374",5.497168541,-3.1090347767,6.3155649129,-0.06501735,0,0
"375",5.2834129333,-2.571652174,5.8926202041,-0.1716023833,0,0
"376",5.3655920029,-1.9233503342,6.0437760803,-0.3282819986,0,0
"377",5.7567286491,-1.9702029228,6.4862316737,-0.5627688169,0,0
"378",5.6178178787,-1.8718574047,6.2259479827,-0.7141197324,0,0
"379",6.3132715225,-2.3367905617,6.955347696,-1.0839699507,0,0
"380",7.1281766891,-2.4923171997,8.0085613217,-1.28115201,0,0
"381",7.3968682289,-2.7280769348,8.4332463598,-1.3397735357,0,0
"382",7.8469820023,-3.545976162,9.34289996,-1.3920001984,0,0
"383",8.0836400986,-3.7053945065,9.4522081167,-1.312061429,0,0
"384",8.5526151657,-3.465593338,9.8151008415,-1.2086743116,0,0
"385",10.5874834061,-3.9194495678,11.9127637612,-0.967792213,0,0
"386",11.4270868301,-3.8284387589,12.4195248858,-0.998701632,0,0
"387",9.3986549377,-3.4034724236,10.1347176342,-0.7450294495,0,0
"388",8.4879493713,-4.0543189049,9.8300364081,-0.2749894857,0,0
"389",8.2439565659,-4.9214658737,10.5546148539,0.0042631882,0,0
"390",10.6972045898,-5.3112549782,12.5882450311,-0.1652070731,0,0
"391",12.7832670212,-4.6090655327,14.1416754401,-0.3943648934,0,0
"392",17.0805301666,0.3866459727,17.3526880826,-0.6459054947,0,0
"393",19.4164237976,5.2611093521,20.1455746318,-0.5020157099,0,1
"394",8.3514328003,3.1972014904,9.3499930968,-0.1257707179,0,0
"395",8.4210386276,-1.3769865036,10.4345461383,-0.050095126,0,0
"396",7.2524185181,-2.9063560963,10.285771173,0.3357423246,0,0
"397",7.5218582153,-0.2098635882,8.6197361018,0.4998830557,0,0
"398",9.2317523956,1.4130614996,9.5826092875,0.1993136406,0,0
"399",10.6987018585,2.54845047,11.1548907309,-0.3847724497,0,0
"400",10.8976383209,2.3444247246,11.54537504,-1.0924966335,0,0
"401",10.0765953064,0.9858499169,10.9932511174,-1.2587689161,3,0
"402",8.9584207535,-0.2227368206,10.312467078,-0.9134339094,3,0
"403",9.1878938675,-0.6617738605,10.1343799987,-0.7023954391,3,0
"404",9.5417575836,-1.3114228249,10.1138115748,-0.6928027272,3,0
"405",8.9373149872,-1.7112414837,9.3023236889,-0.5339909792,3,0
"406",9.1495733261,-1.4690451622,9.5487424332,-0.3517308831,3,0
"407",9.2657318115,-1.1376342773,9.821264544,-0.2003802359,3,0
"408",9.0043754578,-0.9599537849,9.5852462407,-0.0724781975,3,0
"409",9.3435697556,-0.450113982,9.9307892411,0.0511603914,3,0
"410",9.286239624,-0.3402424753,10.2123219282,0.1545480341,3,0
"411",8.7849311829,-0.4147874415,9.8079718572,0.1556138247,3,0
"412",8.9745874405,0.4457730055,9.7160735048,0.1598770171,3,0
"413",8.6834430695,0.189655602,9.2737735729,0.1342968196,3,0
"414",9.4541902542,-0.8449928164,10.0342294422,0.0703455359,3,0
"415",9.6396541595,-1.4596147537,10.273381431,0.1939843893,3,0
"416",9.5209512711,-0.6890171766,10.189503853,0.4284712076,3,0
"417",8.5780620575,0.1874102801,9.0770992153,0.6373780966,3,0
"418",7.588768959,-0.4144880772,8.1814277787,0.7183826566,3,0
"419",8.104596138,-0.7523354888,8.5055748105,0.7961898446,3,0
"420",10.1870660782,0.5689668059,10.7874002357,0.7183826566,3,0
"421",10.0307912827,0.7731422186,10.9726611172,0.6160607934,3,0
"422",8.9226455688,0.3797602952,10.343371612,0.5361220241,3,0
"423",7.6437048912,0.2086660713,8.8966239441,0.508409977,3,0
"424",7.7990818024,-0.6355783343,8.9932615698,0.5020151734,3,0
"425",10.0164203644,-1.0719208717,11.2207498707,0.40289101,3,0
"426",10.3259773254,-0.333506465,11.4501916061,0.4103518426,3,0
"427",9.1218805313,-0.8418493867,9.8223532026,0.4881590307,3,0
"428",8.8464536667,-2.3451731205,9.7470706549,0.673617065,3,0
"429",8.7314929962,-1.9267932177,9.7749853578,0.6139292121,3,0
"430",10.3478317261,-0.8756790161,11.3274023207,0.4263395965,3,0
"431",12.4325466156,-1.2347822189,13.2875324066,0.3261498809,3,0
"432",13.5333576202,-0.6327342391,13.9177067229,0.3996933401,3,0
"433",12.5505008698,-1.0112969875,12.6740398698,0.5574392676,3,0
"434",11.6354541779,-4.4512934685,12.48048281,0.7002633214,3,0
"435",10.0771942139,-3.9184017181,10.8782659428,0.9677916765,3,0
"436",10.5867347717,-3.4149985313,11.5018614216,1.0349397659,3,0
"437",12.5138273239,-4.0800652504,13.4493798549,1.460214138,3,0
"438",13.0571975708,-3.8526883125,13.7796621641,1.6563307047,3,0
"439",12.8120069504,-3.8579273224,13.4095537432,1.9025417566,3,0
"440",10.5609884262,-4.5554766655,11.5018408587,1.9952709675,3,0
"441",9.7827568054,-4.549788475,10.8006650508,1.8865542412,3,0
"442",7.36049366,-3.0219159126,7.9835417251,1.4612799883,3,0
"443",7.2956786156,-2.3719675541,7.6750168592,1.2140027285,3,0
"444",7.9490699768,-3.0129346848,8.5631740333,1.0072277784,5,4
"445",7.9228744507,-3.9474413395,8.9896210058,0.9315527081,3,0
"446",6.8508038521,-5.6959552765,9.2638804448,0.667221725,3,0
"447",6.1840901375,-4.7756690979,8.013260342,0.0692797378,3,0
"448",6.6192350388,-4.0662941933,7.8215060395,-0.2430142462,3,0
"449",6.3822779655,-3.7811369896,7.4771821374,-0.3815745115,3,0
"450",6.8359847069,-2.9466223717,7.5064565206,-0.7343711853,3,0
"451",7.3278617859,-3.5762131214,8.2326366464,-0.9336848259,3,0
"452",8.4126558304,-4.4342288971,9.5446175311,-1.0360064507,3,0
"453",9.3525514603,-4.7915358543,10.5210501973,-1.0349406004,3,0
"454",10.0089359283,-4.8794031143,11.1892136268,-0.9390143752,3,0
"455",9.3477611542,-4.4309358597,10.5098460219,-0.8452194333,3,0
"456",9.062005043,-4.2447228432,10.1916521656,-0.7578195333,3,0
"457",9.449549675,-3.5128948689,10.300171297,-0.7546221614,3,0
"458",10.3357067108,-3.752396822,11.2010565941,-0.7098565102,3,0
"459",10.789563179,-4.5105700493,11.8447947985,-0.677880764,3,0
"460",10.7654628754,-5.1136660576,11.9864705428,-0.7375686169,3,0
"461",11.0235261917,-4.5559258461,12.0001767463,-0.6800128818,3,0
"462",10.2183504105,-3.9832167625,11.0269538792,-0.5052130818,3,0
"463",9.1817560196,-2.2282662392,9.4889566582,-0.268594712,3,0
"464",8.1625261307,-1.9863693714,8.4892725851,-0.2035776228,3,0
"465",8.1890211105,-2.2799088955,8.6815305551,-0.4338012338,3,0
"466",9.0298223495,-2.1609063148,9.4952312346,-0.7471610308,3,0
"467",9.9093933105,-2.3058049679,10.2419968041,-0.8292313814,3,0
"468",10.070608139,-2.5021965504,10.4594980835,-0.7279759049,3,0
"469",10.1914072037,-3.4082624912,11.0091500806,-0.5798226595,3,0
"470",10.0475559235,-3.0895752907,10.9159350745,-0.4753694534,3,0
"471",10.0495023727,-2.2038669586,10.5774946152,-0.442328155,3,0
"472",10.5731134415,-1.5299683809,11.0091864633,-0.3719818294,3,0
"473",10.5042562485,-1.9702029228,10.9155691823,-0.190787524,3,0
"474",10.5701189041,-2.350112915,11.1084025155,-0.0543588474,3,0
"475",9.9833393097,-1.8857785463,10.6669603148,0.0831361637,3,0
"476",10.7775878906,-1.0581495762,11.3917334584,0.0447656065,3,1
"477",10.3677406311,-0.8448431492,10.9213825164,0.1854574829,3,0
"478",10.9602079391,-1.0310559273,11.6711781816,0.4668420255,3,0
"479",10.3533697128,-0.7027885318,11.4263668386,0.5766244531,3,0
"480",9.5803775787,-0.3287164271,11.1775174917,0.3186887801,3,0
"481",9.1193361282,0.4520599246,11.1203349759,-0.197182849,3,0
"482",8.9724912643,0.4620890915,9.8456316406,-0.5840860605,3,0
"483",8.3250875473,-0.9053173661,9.2170983856,-0.5126742125,3,0
"484",8.8177137375,-2.0718414783,9.747311735,-0.3666528463,3,0
"485",9.3196201324,-2.5818309784,10.0070333542,-0.364520967,3,0
"486",10.7918081284,-3.3656013012,11.3617805547,-0.1364292204,3,0
"487",10.4362974167,-3.6025583744,11.1439527595,0.00959244,3,0
"488",9.8796052933,-2.293680191,10.1454897175,0.1236380562,3,0
"489",10.1716480255,-0.9325607419,10.2635293386,0.1684039235,3,0
"490",10.1229991913,-1.4027329683,10.3023465197,0.281384021,3,0
"491",10.0429153442,-1.9327807426,10.5110771241,0.2685939074,3,0
"492",9.8405361176,-1.8314415216,10.4662580115,0.222762242,3,0
"493",9.3196201324,0.0607736222,10.0475356388,0.1001897156,3,0
"494",9.1506214142,1.2320878506,10.3109177734,0.0724776611,3,0
"495",9.122179985,1.5419435501,10.4728995682,0.104452908,3,0
"496",9.8944244385,0.5646258593,11.0615020129,0.0842019618,3,0
"497",9.3420734406,-0.3412902951,10.366235547,0.1438895315,3,0
"498",9.0148534775,-0.1926493794,10.2128482306,0.1716015786,3,0
"499",9.2052574158,-0.1802252233,10.5873568438,0.1598770171,3,0
"500",9.5309801102,-0.369581461,10.4983206723,0.1076508313,3,0
"501",9.9408283234,-0.0788859576,10.4873221017,0.0916628093,3,0
"502",9.6510305405,-0.0214054864,10.1797324682,0.0916628093,3,0
"503",9.0160512924,-0.3448828161,9.5038139317,0.0724776611,3,0
"504",8.846154213,-0.6420149207,9.6295393111,0.0468972027,3,0
"505",8.9467449188,-0.6795867682,9.8701128878,0.1428234577,3,0
"506",9.3875780106,-0.9496252537,10.4469145386,0.1961159855,3,0
"507",9.4737987518,-1.8437160254,10.4855130483,0.1779963672,3,0
"508",8.8928575516,-2.1418960094,9.7814527984,0.2685939074,3,0
"509",8.6196756363,-1.4516812563,9.4540010409,0.3677181005,3,0
"510",8.5425853729,-1.3629157543,9.2589146727,0.4775005281,3,0
"511",9.0376062393,-1.9387682676,9.9546514326,0.6203244925,3,0
"512",9.8107481003,-2.517015934,11.0289937162,0.7706093788,3,0
"513",9.6383066177,-1.1557465792,10.921111117,0.7567532063,3,0
"514",8.7876262665,-0.0796343982,9.952391018,0.7354362011,3,0
"515",8.0905256271,0.1845661998,8.901593835,0.8313627243,3,0
"516",7.4136333466,-2.2206320763,8.332874082,0.9731206894,3,0
"517",9.7345571518,-2.7011330128,10.8158648773,1.0701129436,3,0
"518",9.6688432693,0.524658978,11.0858538828,0.7556874156,3,0
"519",8.782087326,0.5411247015,10.0748136063,0.5137394667,3,0
"520",7.7728862762,0.4791536033,8.9846959861,0.493488282,3,0
"521",7.6035881042,-0.7171586752,8.7137607532,0.4252738059,3,0
"522",8.7672681808,-2.8487260342,10.2996031601,0.5041467547,3,0
"523",10.6687641144,-1.858235836,12.0611887797,0.5254635215,3,0
"524",9.7212343216,-1.6010705233,10.7990508475,0.5169368982,3,0
"525",8.1812372208,-1.2067904472,9.3172128516,0.4721710086,3,0
"526",7.4223151207,-1.2283456326,8.529683958,0.48709324,3,0
"527",7.5904154778,-3.2775843143,8.8617329899,0.5521097779,3,0
"528",10.4222269058,-4.0770716667,12.109592992,0.5403857231,3,0
"529",13.3103208542,-2.274969101,14.5891869414,0.1470869184,3,0
"530",13.5531158447,-0.833317101,14.1747887759,-0.2366189361,3,0
"531",11.0408906937,-0.3182382286,11.1297031705,-0.4092865884,3,0
"532",8.7825365067,-2.335742712,9.0896670689,-0.4551179707,3,1
"533",9.9800462723,-4.1927809715,10.8378285007,-0.6139297485,3,0
"534",12.1629571915,-4.3786945343,13.085669307,-0.7002637982,3,0
"535",11.3946046829,-3.7736525536,12.2153821436,-0.6352469921,3,0
"536",10.4021682739,-2.6620643139,10.7558563604,-0.3421381712,3,0
"537",9.5261898041,-2.3540048599,9.8172389936,-0.1342976242,3,0
"538",10.1222505569,-3.2892599106,10.6503009019,-0.0618194267,3,0
"539",10.3988752365,-3.6808457375,11.0374841986,0.0010657971,3,0
"540",10.6352338791,-4.2704696655,11.4707581636,0.2312888801,3,0
"541",10.1397638321,-2.4963588715,10.4594087288,0.704526484,3,0
"542",9.7460832596,-1.8035993576,9.9150886456,0.8153749704,3,0
"543",9.273815155,-1.5260765553,9.4221794623,0.8846549988,3,0
"544",9.177116394,-2.2237756252,9.5028441338,0.7812678814,3,0
"545",9.0584125519,-3.3325200081,9.7191687981,0.5659661889,3,0
"546",8.7808904648,-3.8392162323,9.7485236982,0.2963062227,3,0
"547",9.3838357925,-4.6384043694,10.520550916,0.3325449228,3,0
"548",9.5779829025,-4.6202921867,10.6669474406,0.3826397955,3,0
"549",10.6482572556,-4.4453058243,11.5424082457,0.5755586624,3,0
"550",10.4913825989,-4.5994853973,11.4583570076,0.7237116098,3,0
"551",10.2934942245,-4.218527317,11.125763599,0.8526797295,3,0
"552",8.0206212997,-2.4101381302,8.4397973218,0.9603305459,3,0
"553",6.3146185875,-2.9178822041,6.9908583758,0.6661559343,3,0
"554",6.2433667183,-3.4593062401,7.244384959,0.4082202613,3,0
"555",8.9882087708,-3.5768120289,9.6853536874,-0.197182849,3,0
"556",9.0882005692,-4.2227187157,10.0686687255,-0.3986280859,3,0
"557",9.0197935104,-4.2704696655,10.1379658132,-0.4743036628,3,0
"558",8.9736890793,-3.6952157021,9.8750278134,-0.3805087209,3,0
"559",8.6882324219,-3.4404456615,9.4653733279,-0.3069652617,3,0
"560",8.3626594543,-3.5251693726,9.1179154995,-0.448723197,3,0
"561",9.1338558197,-3.2510893345,9.7297011126,-0.654432416,3,0
"562",10.1942510605,-3.1138248444,10.6616590984,-0.688539505,3,0
"563",10.1322793961,-3.1939082146,10.6289776705,-0.4806984365,3,0
"564",8.7641248703,-4.1781115532,9.7262448179,-0.2558043599,3,0
"565",8.6783533096,-4.2956171036,9.8109565055,-0.2323554754,3,0
"566",8.789721489,-3.2965946198,9.542520632,-0.2227627784,5,4
"567",9.0768241882,-2.9669802189,9.6019240359,-0.2579359412,3,0
"568",9.8770608902,-2.7129583359,10.3202008711,-0.4476574063,3,0
"569",10.1445541382,-2.6301805973,10.5863565848,-0.5691641569,3,0
"570",9.8908319473,-2.0378623009,10.1746344273,-0.4380649626,3,0
"571",10.1396141052,-1.9745439291,10.4270336189,-0.2760552764,3,0
"572",10.4322557449,-2.7101142406,10.8010959352,-0.2653967738,3,0
"573",11.0504703522,-3.4868490696,11.5901149593,-0.1801290214,3,0
"574",11.3691577911,-3.9713914394,12.1386842883,0.0564899072,3,0
"575",11.9604282379,-5.2823653221,13.2629210611,0.5350562334,3,0
"576",11.2766504288,-5.3971767426,12.7490832429,0.984845221,3,0
"577",9.4826307297,-4.4869194031,10.5141865397,1.1010227203,3,0
"578",8.7566404343,-4.3900709152,9.8314628331,0.8409554362,3,0
"579",9.5555295944,-3.9390587807,10.3929534368,0.5670319796,3,0
"580",9.6992301941,-3.9013371468,10.4651506756,0.4828297794,3,0
"581",9.8870897293,-5.691614151,11.7036008853,0.5659661889,3,0
"582",7.776927948,-4.5292811394,9.9671755896,0.3325449228,3,0
"583",6.8978061676,-3.6592905521,9.0422389352,-0.0490293279,3,0
"584",8.7267026901,-3.7685632706,10.2023215102,-0.1716023833,3,0
"585",10.1387166977,-3.7684135437,11.402840217,-0.3218872249,3,0
"586",9.8201789856,-3.0383815765,10.7590060102,-0.3197551072,3,0
"587",8.9941968918,-2.7831623554,9.8694674288,-0.140692398,3,1
"588",7.5182657242,-3.7257523537,8.9007157113,-0.024514664,3,0
"589",6.3244981766,-2.9795539379,7.7387424045,-0.0095932391,3,0
"590",7.7552227974,-2.7771749496,9.1269759038,0.1065844968,3,0
"591",9.3501558304,-3.3862581253,10.9025872756,0.2014452368,3,0
"592",9.3723106384,-4.1912841797,11.4061469923,0.4167468846,3,0
"593",6.9407668114,-3.442990303,9.4081672413,0.4604469836,3,0
"594",6.1197237968,-3.0966105461,8.8424649333,0.4306033254,3,0
"595",7.2172417641,-3.4048197269,9.3901834241,0.3964959383,3,0
"596",7.9996647835,-2.9159362316,9.5847495539,0.2749889493,3,0
"597",7.7854599953,-2.7604095936,9.164137844,0.1790626943,3,0
"598",7.3281612396,-2.1204903126,8.4798173834,0.104452908,3,0
"599",7.7618093491,-3.8636155128,9.4484880156,0.4188784957,3,0
"600",8.1722555161,-4.6232857704,10.1039481123,0.5585051179,3,0
"601",8.9660549164,-5.1021399498,10.5412546512,0.5649003983,3,0
"602",8.7252054214,-4.5074267387,10.0858104175,0.6405754685,3,0
"603",8.2532377243,-3.9604642391,9.6005656235,0.7290411592,3,0
"604",6.1113414764,-4.603676796,8.3913078385,1.2033442259,3,0
"605",7.3533086777,-5.1573753357,9.6011496968,1.3259171247,3,0
"606",10.8624610901,-6.4228434563,13.3483032749,1.0914303064,3,0
"607",12.3815021515,-6.2480072975,14.9199248153,0.9049064517,3,0
"608",9.1304130554,-6.5077171326,12.9021509787,0.9283547997,3,0
"609",4.1740698814,-6.14083004,9.7817640078,0.6309827566,3,0
"610",2.4885749817,-5.4687275887,7.7221642484,0.3186887801,3,0
"611",5.234913826,-6.1554994583,9.1705822529,0.0852677599,3,0
"612",8.0059518814,-6.7406330109,11.0778526197,0.1342968196,3,0
"613",7.7263331413,-7.1221895218,10.8252928802,0.1428234577,3,0
"614",7.2573580742,-6.9552865028,10.5741826745,0.1374944746,3,0
"615",6.8861303329,-7.0612659454,10.3973750396,0.1652065367,3,0
"616",6.2545933723,-7.2676868439,10.2394079049,0.2419479191,3,0
"617",6.7735643387,-7.9860429764,11.0136668528,0.2291572839,3,0
"618",7.6508898735,-7.0492911339,10.8906551235,0.2632646561,3,0
"619",7.3161859512,-6.7981133461,10.5800116024,0.4018249214,3,0
"620",6.8566417694,-7.4453673363,10.7916722439,0.4593811631,3,0
"621",7.5540413857,-7.4928188324,11.4049723707,0.3016352057,3,0
"622",8.2963476181,-7.1813163757,11.6180313717,0.198247835,3,0
"623",8.3066759109,-6.903793335,11.2912053276,0.1172432676,3,0
"624",7.5426650047,-7.2069129944,10.9896455061,0.0394360907,3,0
"625",6.5003824234,-7.2700819969,10.2034906436,-0.1119145527,3,0
"626",6.5861539841,-7.1802687645,10.20498972,-0.2664625943,3,0
"627",8.5813550949,-7.0247421265,11.5748396728,-0.2909772396,3,1
"628",9.2031621933,-7.6553807259,12.6250882287,-0.218499586,3,0
"629",9.29641819,-8.130941391,13.0250683217,-0.2302238792,3,0
"630",9.2254657745,-7.8941340446,12.8174384299,-0.3538624644,3,0
"631",10.2355651855,-8.2521896362,13.7835395278,-0.3815745115,3,0
"632",11.8683700562,-9.0250320435,15.6044141735,-0.0063953148,3,0
"633",12.072095871,-10.0736017227,16.5667161865,0.5947440863,3,0
"634",11.9807853699,-10.4392910004,16.8172296728,1.0424009562,3,0
"635",10.9666442871,-7.0620145798,13.6342316597,1.4239752293,3,0
"636",4.183350563,-2.4728577137,4.8746580346,1.5497456789,3,0
"637",2.148781538,-4.1993675232,5.5379868339,1.3834728003,3,0
"638",6.8716106415,-8.2777862549,10.7778767934,1.8044836521,3,0
"639",7.3441777229,-6.9394192696,10.3071252862,2.1199753284,3,0
"640",6.4135627747,-6.1110420227,8.9595010632,2.0261802673,3,0
"641",4.6888494492,-7.1341643333,8.7065387927,1.0903644562,3,0
"642",3.4657430649,-8.0487623215,9.1159183825,0.8207039833,3,0
"643",3.1190638542,-7.8173437119,8.8580977984,0.3613227904,3,0
"644",4.1053628922,-6.5686402321,7.995368332,-0.0522267185,3,0
"645",4.2055044174,-6.7186284065,8.0198176017,-0.3964964747,3,0
"646",4.1423358917,-6.6145949364,7.8336939086,-0.8707998991,3,0
"647",3.9639070034,-6.9129242897,7.9945409746,-1.0370724201,3,0
"648",5.0246014595,-6.5765738487,8.3640406628,-1.1958839893,3,0
"649",5.5161790848,-6.5710353851,8.7303656314,-1.1894891262,3,0
"650",5.8529787064,-7.3778576851,9.9005719106,-1.0871673822,3,0
"651",5.1468968391,-5.7333774567,8.1884028978,-0.9944384694,3,0
"652",5.2501821518,-4.7524671555,7.0819461437,-1.1127477884,3,0
"653",6.5864534378,-3.9582188129,7.996390005,-1.0040311813,3,0
"654",10.6454124451,-6.7508115768,12.6482565421,-0.7791367769,3,0
"655",18.8209609985,-18.8634738922,27.1750285692,1.3344439268,3,0
"656",19.5723991394,-12.27896595,28.4555091927,1.1063519716,3,0
"657",0.8861572146,-5.3837046623,6.394389268,0.0490287952,3,0
"658",-4.8814988136,-4.1580533981,7.8039616428,-0.3538624644,3,0
"659",-1.3000465631,-3.6283049583,5.457840856,-0.481764257,3,0
"660",5.3602032661,-4.7873444557,7.7103732597,-0.2280922979,5,4
"661",7.5157208443,-7.4259076118,11.6201798485,0.0543583147,3,0
"662",12.9495716095,-9.2405843735,16.9023469097,0.0873993561,3,0
"663",15.4167404175,-8.4900445938,19.0428000794,-0.2280922979,3,0
"664",6.513405323,-7.1141061783,9.646647892,-0.0159880221,3,0
"665",3.035836935,-5.2855086327,6.172912047,0.0522261858,3,0
"666",3.6732115746,-4.6629533768,5.9924316357,0.0927286074,3,0
"667",6.7900300026,-5.3798127174,9.2927946994,0.1854574829,3,0
"668",8.8898630142,-4.7678852081,11.5737210649,0.1353628784,3,0
"669",9.5938491821,-4.6090655327,12.0344005869,0.0586215034,3,0
"670",7.0313282013,-5.1732420921,8.9971202906,-0.0415684842,3,0
"671",7.0921020508,-6.0257196426,9.5210502706,0.2824498117,3,0
"672",8.7383785248,-6.2761487961,11.4177502491,0.4998830557,3,0
"673",8.0575942993,-6.2568387985,11.0959535801,0.4199442863,3,0
"674",4.8687753677,-6.0086550713,8.2230890808,0.394364357,3,0
"675",3.6369867325,-3.2187566757,5.4143869542,0.222762242,3,0
"676",3.0693671703,-4.5583209991,6.110138282,0.3357423246,3,0
"677",5.8844132423,-7.2259235382,10.4850859309,0.8676016927,3,0
"678",10.8732385635,-8.737030983,16.2259268051,0.8420212269,3,0
"679",8.5804567337,-6.5539708138,13.5990650529,0.3261498809,3,0
"680",3.9297780991,-4.5280838013,6.9403584408,0.0543583147,3,0
"681",2.2101540565,-3.5724709034,4.3301596146,-0.2515411675,3,0
"682",1.4670991898,-5.4753141403,5.850023462,-0.0053295181,3,0
"683",4.4572811127,-8.0435237885,9.7268401692,0.4423273504,3,0
"684",8.203540802,-8.3716411591,12.9893825896,0.4071544409,3,0
"685",7.387887001,-5.5872812271,10.9425553328,0.0415676832,3,0
"686",5.5832395554,-4.259991169,7.7703241449,-0.0010663297,3,0
"687",5.7691531181,-2.6213488579,6.8002750005,-0.0021321268,3,0
"688",5.9827589989,-3.207829237,7.1429752013,0.1811942905,3,0
"689",6.7690734863,-6.9566335678,9.8575447427,0.4124836922,3,0
"690",7.2853498459,-7.7442955971,10.8778942247,0.3005694151,3,0
"691",8.863817215,-4.7533655167,10.8020830194,0.198247835,3,0
"692",8.921298027,-3.0746064186,10.3131377052,0.6928021908,3,0
"693",8.7921171188,-6.0234742165,11.0113099649,1.1916199923,3,0
"694",10.8465948105,-8.3250875473,14.091302968,1.2054759264,3,0
"695",12.4511079788,-9.8207778931,17.3312305251,0.7642140388,3,0
"696",13.5812578201,-7.2649922371,17.3598470134,0.3080302775,3,0
"697",10.6511011124,-6.7548532486,14.7723044168,0.3794423938,3,0
"698",14.3930196762,-7.0334239006,18.3498005287,0.3996933401,3,0
"699",18.8021011353,-4.8102469444,21.1223020016,0.6288511753,3,1
"700",15.3022289276,-5.9746756554,17.2632059603,1.2182662487,3,0
"701",11.3829288483,-7.8887453079,14.1659443989,0.9837794304,3,0
"702",8.6009645462,-6.3831763268,11.0159827208,0.5968756676,3,0
"703",6.3325815201,-6.2159738541,9.456047779,0.6586948037,3,0
"704",7.5062904358,-6.458319664,10.4359944794,0.6586948037,3,0
"705",7.9204792976,-4.8829956055,9.6075034699,0.2781866193,3,0
"706",6.044131279,-4.3824367523,7.931645194,0.1438895315,3,0
"707",5.8309745789,-4.5030856133,7.6520481335,0.0586215034,3,0
"708",5.7712488174,-4.3445653915,7.6172430887,-0.3144261241,3,0
"709",5.046605587,-4.4282412529,7.1828104394,-0.4540521801,3,0
"710",3.4302666187,-4.9701147079,6.6858364425,-0.765280664,3,0
"711",3.2519874573,-4.7548623085,6.1236953903,-1.1447232962,3,0
"712",4.68151474,-4.2700204849,7.0363428279,-1.4559512138,3,0
"713",5.448220253,-4.1538619995,7.9782882751,-1.5337584019,3,0
"714",8.3129634857,-4.5963420868,10.262688947,-1.7458627224,3,0
"715",9.9968118668,-5.5055513382,12.0409559064,-1.757586956,3,0
"716",10.1137180328,-5.8579182625,12.5955073264,-1.7042944431,3,0
"717",9.1582555771,-5.6127281189,12.9284819349,-1.6499361992,3,0
"718",9.3911705017,-3.9022352695,12.0104362882,-1.7842332125,3,0
"719",8.6452722549,-2.2781126499,9.7140972616,-1.5604046583,3,0
"720",8.0839395523,-2.2387444973,8.7192067673,-1.3088639975,3,0
"721",8.0313987732,-2.849624157,8.565160185,-0.7130539417,3,0
"722",11.6005764008,-2.6232948303,12.0182559701,-0.5403862596,3,0
"723",14.356795311,-2.1944365501,14.7521805525,-0.3442697525,3,0
"724",13.5044670105,-5.1787805557,15.3064795044,0.5180026889,3,0
"725",6.9945049286,-4.6827120781,10.124892246,0.4338006973,3,1
"726",4.8213238716,-3.2527358532,8.104341036,0.2462111115,3,0
"727",6.5964827538,-3.2617173195,7.8392705399,-0.0415684842,3,0
"728",8.2215032578,-2.7964847088,9.0455580627,-0.099124454,3,0
"729",9.9601373672,-2.0330722332,10.6552329375,-0.1236388534,3,0
"730",11.6876955032,-1.8723064661,12.5932392935,-0.4391307533,3,0
"731",11.2380304337,-2.229164362,12.4435640054,-0.5840860605,3,0
"732",8.3912506104,-2.848277092,9.8092229923,-0.1492193192,3,0
"733",7.0727920532,-2.9120442867,8.3196485944,-0.1012560502,3,0
"734",7.3063063622,-1.8386265039,8.3080257909,-0.0554246418,3,0
"735",8.085735321,-1.2241543531,9.4813149055,0.1140456125,3,0
"736",8.8442087173,-1.5346087217,10.4005243169,0.1929185838,3,0
"737",8.8579797745,-2.1609063148,10.6019028881,0.19505018,3,0
"738",8.8763914108,-2.461181879,10.5913590966,0.1833258867,3,0
"739",7.9366455078,-2.6918523312,10.0547925918,0.0916628093,3,0
"740",7.9370946884,-3.2418086529,10.069241179,-0.0618194267,3,0
"741",8.5551595688,-2.3752605915,10.3242771293,-0.1630754769,3,0
"742",8.8771400452,-1.3091775179,10.2143022383,-0.1939849257,3,0
"743",8.852440834,-1.4185999632,9.9419334647,-0.0607536286,3,0
"744",8.8727989197,-1.8223104477,10.0041415222,0.1811942905,3,0
"745",8.1107339859,-2.7288253307,9.3617940843,0.2952401638,3,0
"746",8.7169733047,-2.7125093937,9.5992404001,0.2909767032,3,0
"747",10.1955986023,-3.584895134,11.3111156649,0.2057089508,3,0
"748",12.7165060043,-4.4018959999,13.9670758706,0.5947440863,3,0
"749",12.8000326157,-4.8548541069,13.9788560601,1.1319323778,3,0
"750",11.6011753082,-5.439388752,13.0319226867,1.6094331741,3,0
"751",9.5088262558,-4.9368839264,11.2905387362,1.7149522305,3,0
"752",7.4962615967,-3.2513887882,8.9451060975,1.5039139986,3,0
"753",7.0576734543,-3.2653098106,8.2105848707,1.3205878735,3,0
"754",6.6355514526,-3.8875658512,8.5164393604,1.2182662487,3,0
"755",6.1487636566,-4.4158172607,8.4803054632,0.9795157313,3,0
"756",6.4616131783,-5.1462984085,9.0249850709,0.7055922747,3,0
"757",6.9820804596,-5.1048345566,9.2152130066,0.417812705,3,0
"758",5.8089699745,-4.7707290649,8.0950309299,0.2291572839,3,0
"759",4.7267208099,-4.6126580238,6.8836249609,0.0149214249,3,0
"760",5.0356783867,-4.7636938095,7.132255474,-0.0799387768,3,0
"761",7.3043603897,-4.6545705795,8.9862489554,-0.3954306841,3,0
"762",7.8198885918,-4.7737231255,9.3673585394,-0.4934890866,3,0
"763",7.1835618019,-4.0612049103,8.5006363574,-0.6618932486,3,0
"764",6.6812062263,-4.2087979317,8.1788069607,-0.6693538427,3,0
"765",6.6708779335,-6.192173481,9.636292014,-0.5883492827,3,0
"766",8.3420028687,-6.972650528,11.7557294147,-0.5915471911,3,0
"767",9.4401187897,-4.5696973801,11.5700052183,-0.4306038618,3,0
"768",8.7720584869,-3.6172280312,10.2953248312,-0.2877798676,3,0
"769",8.6172800064,-3.8655614853,10.2198933653,-0.4743036628,3,0
"770",10.1475477219,-3.5274147987,11.2444396795,-0.6704201698,3,0
"771",11.2817392349,-3.9863603115,12.241925751,-0.7109223604,3,0
"772",10.5891294479,-4.2653799057,11.7456877892,-0.5659667253,3,0
"773",9.5498409271,-4.494553566,11.0148561899,-0.4615133107,3,0
"774",9.4842777252,-4.6003832817,11.1613959404,-0.3346773088,3,0
"775",9.2571992874,-3.8422100544,11.1507842194,-0.3133603036,3,0
"776",10.8377628326,-3.9258861542,12.2785598099,-0.345335573,3,0
"777",10.9435930252,-3.3533267975,12.0928409047,-0.3538624644,3,0
"778",11.2824878693,-2.7994785309,12.1844466077,-0.1289681047,3,0
"779",10.7627687454,-3.9026842117,11.8698005938,0.0799382403,3,0
"780",10.9510774612,-4.9991540909,12.7322461555,0.1907870024,3,0
"781",9.4261980057,-5.3013758659,12.8169247314,0.4284712076,3,0
"782",8.1349830627,-4.5068278313,11.297045188,0.4135495126,3,0
"783",7.6541829109,-2.1903951168,9.0762405935,0.2142353356,3,0
"784",8.9629116058,-1.4549744129,9.2548988361,-0.268594712,5,4
"785",8.7787942886,-2.1627025604,9.1956912524,-0.104453437,3,0
"786",8.8427114487,-2.5945546627,9.4392540925,0.0682139397,3,0
"787",10.5082979202,-3.3413515091,12.2470207484,0.1694697291,3,0
"788",10.9096136093,-3.5512151718,12.4361203449,-0.0053295181,3,0
"789",10.1364707947,-3.9164557457,11.7188092446,-0.0916636065,3,0
"790",9.218580246,-3.287463665,10.4117222966,0.0106582372,3,0
"791",8.8395681381,-2.629431963,9.6690269307,0.1811942905,3,0
"792",8.8754930496,-2.6182053089,9.6484726878,0.2121037394,3,0
"793",9.7885942459,-3.0087432861,10.6544921857,0.1769305766,3,0
"794",9.8643369675,-3.5087037086,10.7701464987,-0.0042637209,3,0
"795",8.3873586655,-2.7545719147,9.1035145774,0.2206306458,3,0
"796",7.7152562141,-2.7487339973,8.5831384235,0.3794423938,3,0
"797",4.4270439148,-4.5303292274,7.5591314711,0.3495987356,3,0
"798",5.1012420654,-4.301305294,7.476197173,-0.0042637209,3,0
"799",6.2218117714,-3.9360649586,8.0512626463,-0.2025118321,3,0
"800",7.9840970039,-3.4049692154,9.3556416346,-0.2089068741,3,0
"801",11.109746933,-3.8907091618,13.2331222428,-0.0969925895,3,0
"802",10.2044296265,-4.4063868523,12.9023165493,0.030909447,3,0
"803",9.7878456116,-4.85470438,12.4599162003,0.1151114106,3,0
"804",7.5621242523,-4.7774653435,10.0933667751,0.0969917923,3,0
"805",7.087012291,-4.2716670036,9.0156233075,0.0213167407,3,0
"806",7.9583506584,-3.89594841,9.389719483,0.023448335,3,0
"807",10.7603740692,-4.0597076416,12.2061812204,0.2483427078,3,0
"808",10.3750753403,-3.6531531811,11.7178886402,0.3410718441,3,0
"809",9.4151210785,-3.4546658993,10.7881088775,0.3250840902,3,0
"810",9.4561357498,-3.5866913795,10.8102714579,0.2174332589,3,0
"811",9.3757534027,-3.828887701,10.8532827729,0.0436992794,3,0
"812",8.6761083603,-3.6359391212,10.1051003146,-0.1556143612,3,0
"813",8.238866806,-2.731669426,9.2556296049,-0.2099726796,3,0
"814",8.0849876404,-2.3188278675,9.1154116067,-0.1609438807,3,0
"815",8.6371889114,-1.974693656,9.3513585374,-0.0746097863,3,0
"816",9.3847341537,-2.0895049572,10.0027080684,-0.0202514753,3,0
"817",9.7520704269,-1.9369720221,10.3618481476,0.0831361637,3,0
"818",9.0051240921,-2.4399261475,9.957169937,0.2675278485,3,0
"819",8.5577039719,-2.3472688198,9.4949467922,0.2931083143,3,0
"820",7.2859487534,-2.3159837723,8.4352011481,0.2153016627,3,1
"821",7.7266325951,-3.2326776981,8.9163585384,0.1854574829,3,0
"822",10.2981348038,-4.0438408852,11.7168416415,0.3389397264,3,0
"823",11.8107395172,-4.0236330032,13.2833149819,0.4188784957,3,0
"824",9.539812088,-3.7387752533,11.3515584674,0.3890348375,3,0
"825",7.4211177826,-3.759282589,9.4849557714,0.2653962672,3,0
"826",7.0690498352,-3.7684135437,9.1239895196,0.1737331748,3,0
"827",7.2744226456,-3.6004629135,9.2354841002,0.2248941064,3,0
"828",8.3982858658,-3.9085221291,10.271352346,0.3527961373,3,0
"829",8.6009645462,-3.9669008255,10.2421014638,0.3901006281,3,0
"830",8.4199905396,-3.6536023617,9.7689662253,0.3293472826,3,0
"831",8.5422859192,-2.9059071541,9.6125046511,0.3080302775,3,0
"832",8.7472105026,-2.665656805,9.7928000802,0.3048328757,3,0
"833",9.0498809814,-3.2766861916,10.2751019772,0.3485324085,3,0
"834",8.9681510925,-3.4554145336,10.1113584952,0.3304130733,3,0
"835",9.072933197,-3.0632300377,10.0868444294,0.4391299784,3,0
"836",9.9061002731,-2.5375232697,10.728038978,0.4966856539,3,0
"837",10.0578842163,-2.4044499397,10.7171259503,0.4721710086,3,0
"838",9.8412847519,-3.0993049145,10.6363751723,0.4700393975,3,0
"839",9.6905479431,-3.6857852936,10.76369119,0.4956198633,3,0
"840",8.2929048538,-4.7916855812,9.9251882233,0.4668420255,3,0
"841",8.9186038971,-5.0696578026,10.6134904343,0.3346765339,3,0
"842",9.9177761078,-5.143304348,11.5613999952,0.2877793312,3,0
"843",11.0795097351,-4.1638913155,12.7242494733,0.2003794312,3,0
"844",9.5225973129,-4.7545628548,11.1321833704,0.2238283008,3,0
"845",8.014333725,-4.9433202744,9.8231271915,0.2238283008,3,0
"846",7.4176750183,-5.4518127441,9.5925415471,0.222762242,3,0
"847",8.4421443939,-5.3561615944,10.4533724221,0.0436992794,3,0
"848",8.4593582153,-5.6012020111,10.4285781099,-0.0170538183,3,0
"849",8.6660785675,-5.7395148277,10.5887262816,0.0596872978,3,0
"850",9.0685920715,-6.5860042572,11.3506423567,0.0554241091,3,0
"851",9.2548046112,-6.5292720795,11.4498924284,-0.057556238,3,0
"852",9.2844429016,-5.7977433205,11.1545620878,-0.1129803509,3,0
"853",8.9269866943,-4.6349616051,10.3540143028,-0.1556143612,3,0
"854",8.2970962524,-4.3682160378,9.5470372263,-0.1929191202,3,0
"855",7.3720197678,-4.7795610428,8.9141027264,-0.1577459574,3,0
"856",7.6444530487,-5.5395302773,9.6796240508,-0.1279022992,3,0
"857",8.4099617004,-5.4926776886,10.3511339092,-0.1620096713,3,0
"858",9.0111112595,-5.1391129494,10.5073198508,-0.1769313663,3,1
"859",8.9843168259,-5.4082536697,10.6047000613,-0.153482765,3,0
"860",9.0361089706,-5.7140674591,10.9541582826,-0.1662728637,3,0
"861",9.2295074463,-5.7387661934,11.2489915184,-0.1961165071,3,0
"862",8.8316345215,-5.2635045052,10.728223879,-0.1662728637,3,0
"863",9.1808586121,-5.6092853546,11.2856294791,-0.0724781975,3,0
"864",9.0513772964,-5.3129019737,10.9517102164,0.0266457256,3,0
"865",8.2161140442,-5.5621333122,10.169055929,0.0181193482,3,0
"866",8.8888158798,-5.7580761909,10.9331953024,-0.0330415741,3,0
"867",10.3184928894,-5.4227733612,12.0631539756,0.1129798144,3,0
"868",10.0183668137,-5.4311556816,11.6052570664,0.1779963672,3,0
"869",8.0887298584,-4.5684995651,9.3520389394,0.0788724422,3,0
"870",6.701713562,-4.2007145882,7.9829797888,-0.1769313663,3,0
"871",5.7416100502,-4.4417133331,7.4302573963,-0.5169374347,3,0
"872",5.9444384575,-4.4499464035,7.8980762312,-0.894248724,3,0
"873",7.4130344391,-4.0941362381,9.1830437681,-1.2182670832,3,0
"874",8.0638809204,-3.5217266083,9.0983916821,-1.3046005964,3,0
"875",7.7883043289,-4.5575723648,9.0838900988,-1.2086743116,3,0
"876",7.1196446419,-5.783223629,9.2793788886,-0.9784507155,3,0
"877",11.01679039,-5.9390497208,12.9965357933,-0.7386344075,3,0
"878",13.1417713165,-6.0246715546,15.1793346668,-0.5574398041,3,0
"879",10.3966302872,-5.3869976997,11.7350186554,-0.1385608166,3,0
"880",8.1774950027,-3.8951997757,9.1264254358,-0.0053295181,3,0
"881",8.3990345001,-4.2489142418,9.7523558289,-0.0724781975,3,0
"882",8.7849311829,-4.8891329765,10.8134892182,-0.2270264924,3,0
"883",9.0260801315,-4.3547444344,10.8327376764,-0.4369986355,3,0
"884",8.8880672455,-3.1493010521,10.0812915174,-0.6054030657,3,0
"885",8.1484556198,-3.0518536568,9.3856547527,-0.6789465547,3,0
"886",8.7032012939,-5.007686615,10.3723034399,-0.6480371356,3,0
"887",9.6577663422,-6.4313759804,12.0101040581,-0.4135502875,3,0
"888",9.689201355,-5.59760952,11.7334764241,-0.2653967738,3,0
"889",9.1051158905,-4.6384043694,10.7361883106,-0.4689744115,3,0
"890",9.2582473755,-3.7880227566,10.3510996359,-0.4988180697,3,0
"891",9.2865381241,-3.0407767296,9.9210006689,-0.4295380712,3,0
"892",9.0037765503,-3.7989499569,10.3134646803,-0.3218872249,3,0
"893",9.9179258347,-4.2400827408,11.9054323251,-0.4934890866,3,0
"894",9.9510068893,-4.274960041,12.0047051424,-0.5563740134,3,0
"895",8.3473911285,-3.1409184933,9.9895495168,-0.6000741124,3,0
"896",7.3435788155,-3.0798454285,8.7003596791,-0.5606372356,3,0
"897",7.3531589508,-3.5807039738,8.934282484,-0.5798226595,3,0
"898",7.81584692,-3.8883142471,9.6561054108,-0.5329251885,3,0
"899",7.186106205,-3.6949164867,8.9690000918,-0.3932991028,3,0
"900",7.0382137299,-3.7037479877,8.6970592571,-0.3602577746,3,0
"901",8.4463357925,-3.9046301842,9.6915310256,-0.3336115181,3,0
"902",8.593629837,-3.7908668518,9.7893356687,-0.2419484556,3,0
"903",8.6814966202,-3.6609370708,9.7071074884,-0.1652070731,3,0
"904",8.3009881973,-4.4054889679,9.5292338256,-0.0234488677,3,0
"905",8.191116333,-4.1716747284,9.2836109588,-0.0746097863,3,0
"906",7.9505667686,-3.8458025455,9.0913766602,0.015987223,3,0
"907",7.8993730545,-3.2220497131,9.0851103651,0.0756750554,3,0
"908",8.7419710159,-3.0288016796,9.9019650599,0.0948602036,3,0
"909",10.8943452835,-3.3473391533,11.9460699666,0.0490287952,3,0
"910",12.738360405,-3.227288723,13.5554794212,-0.0554246418,3,0
"911",13.3974399567,-2.5734484196,14.0970290064,-0.0095932391,3,0
"912",10.6051464081,-3.6995568275,11.3423260933,0.0106582372,3,0
"913",9.9676218033,-3.6458184719,10.6460624615,-0.0831367001,3,0
"914",9.2530078888,-3.5970199108,10.0644237504,-0.0234488677,3,0
"915",8.3235912323,-4.2276587486,9.8020585993,0.1747989804,3,0
"916",7.5613760948,-4.271217823,9.10122887,0.1716015786,3,0
"917",8.5180368423,-3.636837244,9.5455511146,-0.0511609241,3,0
"918",8.7781953812,-3.0325438976,9.3964898556,-0.18652381,3,0
"919",9.0587120056,-3.1900162697,9.6762551294,-0.2270264924,3,0
"920",9.6977338791,-3.2436048985,10.2891537047,-0.1822606176,3,0
"921",10.1479969025,-3.0784981251,10.6269705348,-0.2238291055,3,0
"922",10.0101337433,-2.7346632481,10.3772473946,-0.2813847959,3,0
"923",9.1392450333,-2.605481863,9.5035056623,-0.2259607017,3,0
"924",9.0816144943,-3.4537677765,9.813125882,-0.1374950111,3,0
"925",10.9823617935,-4.1540117264,12.1670708437,-0.2110384703,3,0
"926",10.6573877335,-3.7408707142,11.6438295191,-0.16840446,3,0
"927",10.34304142,-4.214785099,11.4156351853,-0.0468977354,3,0
"928",9.7299165726,-3.9721398354,10.6261158077,0.0021315941,3,0
"929",8.9313268661,-4.6964836121,10.2060804307,0.0021315941,5,4
"930",10.1732940674,-4.4328818321,11.2870193058,-0.2259607017,3,0
"931",11.5266304016,-4.4774889946,12.6095304988,-0.3538624644,3,0
"932",12.2084627151,-3.5208284855,13.0495640707,-0.3421381712,3,0
"933",9.0732316971,-2.361489296,9.8398456884,-0.1289681047,3,0
"934",6.2733044624,-2.6135649681,7.7256942585,-0.0905978084,3,0
"935",4.9005093575,-3.3661999702,7.2091933897,-0.1076513603,3,0
"936",5.2120113373,-3.6437227726,7.7990286687,0.0085263764,3,0
"937",7.9679307938,-5.7306828499,10.6428969502,0.0873993561,3,0
"938",8.4999246597,-6.1457695961,11.0988685512,0.086333558,3,0
"939",7.9444293976,-3.5563046932,9.1413356929,0.1140456125,3,0
"940",6.4677500725,-3.9666013718,7.7929927357,0.1939843893,3,0
"941",6.6976718903,-3.9420523643,7.9789715005,0.19505018,3,0
"942",7.8641963005,-4.4361748695,9.3399985447,0.1598770171,3,0
"943",8.4137039185,-3.176394701,9.5807568169,0.2163674533,3,0
"944",7.8224329948,-3.0047016144,9.1732785972,0.3293472826,3,0
"945",7.884853363,-2.9421317577,9.3287891043,0.3058986664,3,0
"946",11.2297973633,-3.3174014091,12.3750117138,0.1779963672,3,0
"947",12.7938947678,-3.1951057911,13.7196192021,0.0490287952,3,0
"948",13.7089424133,-3.2055840492,14.277625895,0.023448335,3,0
"949",10.9281749725,-3.3706905842,11.533976907,0.1833258867,3,0
"950",8.8760919571,-5.3642449379,10.5259608902,0.3336107135,3,0
"951",9.2814493179,-7.025490284,11.6465333422,0.3272156715,3,0
"952",10.1134185791,-5.3497252464,11.9884206217,0.0031973913,3,0
"953",9.2558526993,-3.3024325371,10.7667053301,-0.0831367001,3,0
"954",9.0389537811,-3.6233651638,10.7913537489,-0.0671489462,3,0
"955",10.2921476364,-3.9969882965,11.4978323842,-0.2195653766,3,0
"956",10.1325788498,-3.5793566704,10.7920872276,-0.2696605027,3,0
"957",8.4162483215,-3.3352143764,9.060381622,-0.1716023833,3,0
"958",8.0272073746,-3.2142658234,8.6472116375,-0.1513509005,3,0
"959",8.3264350891,-3.3156051636,9.0490960276,-0.2813847959,3,0
"960",8.6389846802,-4.3044490814,9.7575552596,-0.4412623644,3,0
"961",8.9075269699,-4.5189528465,10.0251682182,-0.553176403,3,0
"962",9.4932584763,-4.8871870041,10.7129402987,-0.5659667253,3,0
"963",10.2705917358,-5.0323848724,11.4732288066,-0.3858382404,3,0
"964",9.5687017441,-4.13829422,10.500394178,-0.2387505323,3,0
"965",8.4602565765,-3.6283049583,9.2672642613,-0.1342976242,3,0
"966",8.3855619431,-3.1415171623,8.9772241413,-0.1566801518,3,0
"967",8.9973402023,-2.9773087502,9.5836959991,-0.2494090348,3,0
"968",9.7460832596,-3.1949560642,10.3750286791,-0.2696605027,3,0
"969",9.8143405914,-3.1945068836,10.4111019886,-0.2643309832,3,1
"970",8.6015625,-3.9642064571,9.5470927662,-0.3389405012,3,0
"971",8.0695695877,-2.8003766537,8.5854638675,-0.3751792014,3,0
"972",8.7308940887,-2.7171497345,9.2014892368,-0.3794429302,3,0
"973",10.9260787964,-3.0663733482,11.5542200083,-0.2653967738,3,0
"974",11.8984565735,-3.2712972164,12.6526995165,-0.0415684842,3,0
"975",9.7525196075,-3.9820194244,10.6891745878,-0.0021321268,3,0
"976",9.4896659851,-4.5050315857,10.6502274753,-0.0671489462,3,0
"977",9.9763040543,-3.2576756477,10.6149057346,-0.0458319373,3,0
"978",12.8723316193,-2.4557931423,13.1532550221,0.1971820444,3,0
"979",13.524974823,-3.2208521366,13.9076933722,0.8548113108,3,0
"980",12.3960227966,-3.6809952259,13.1022012972,1.4474238157,3,0
"981",8.4756746292,-4.7256727219,8.8867105941,1.1639078856,3,0
"982",7.7140583992,-5.1338739395,9.3560473301,1.0818375349,3,0
"983",9.0000343323,-4.849615097,10.9816745352,1.0487962961,3,0
"984",8.1646213531,-5.4696259499,10.6264776661,0.936881721,3,0
"985",8.4337615967,-4.8930249214,10.3119310627,0.9081038237,3,0
"986",8.9180049896,-3.4995725155,9.9382642536,0.6128634214,3,0
"987",8.0739097595,-3.3287777901,8.9066367618,0.2153016627,3,1
"988",7.8113560677,-3.2775843143,8.5397817129,-0.0522267185,3,0
"989",7.5151224136,-3.3961377144,8.3228310082,-0.3090968728,3,0
"990",6.7762584686,-3.9312748909,7.9746153544,-0.6022056937,3,0
"991",6.6819548607,-4.0673418045,8.0487207759,-0.7706099153,3,0
"992",5.7657103539,-4.0719823837,7.4924288364,-1.0541257858,3,0
"993",5.5476136208,-3.2871642113,7.11120716,-1.2832835913,3,0
"994",5.3368520737,-3.0927186012,6.7066331055,-1.3983955383,3,0
"995",6.2402234077,-3.2286360264,7.1874684209,-1.6371461153,3,0
"996",7.3995623589,-3.74416399,8.3746114612,-1.6701871157,3,0
"997",8.8930072784,-4.333937645,10.1910948232,-1.6456726789,3,0
"998",11.8998041153,-3.6556978226,13.9618320616,-1.6978991032,3,0
"999",9.6817169189,-1.4111155272,12.7373043506,-1.1894891262,3,0
"1000",8.6371889114,-1.1021580696,11.490720239,-0.7375686169,3,0
"1001",8.5819540024,-2.7285261154,9.5317462729,-0.1716023833,3,0
"1002",7.7363619804,-2.2412891388,8.5730610337,-0.4338012338,3,0
"1003",8.0084962845,-1.2144246101,9.0472928545,-0.5148057938,3,0
"1004",11.3085336685,-0.0664617941,12.3500589593,-0.6864076853,3,0
"1005",14.6108169556,0.0389190689,14.8394735822,-0.8633387685,3,0
"1006",16.0234298706,-1.3506413698,16.0861793859,-0.5084105134,3,0
"1007",14.4843292236,-3.5974690914,14.9869480569,0.1342968196,3,0
"1008",11.6978740692,-4.5132646561,12.7116919577,0.9635279775,3,0
"1009",8.1599807739,-5.6136264801,10.1776172468,1.227858901,3,0
"1010",6.6542625427,-4.5313768387,9.3045833655,0.7269095778,3,0
"1011",8.7488565445,-3.5877392292,10.8825951724,0.1907870024,3,0
"1012",12.3500680923,-1.0322533846,13.6525097227,-0.2952409685,3,0
"1013",13.1621294022,-0.1136137396,13.9647574298,-0.1630754769,5,4
"1014",10.8377628326,-1.9209553003,11.4258800744,0.0383702926,3,0
"1015",9.9545993805,-4.2785525322,11.1779492064,0.2995036244,3,0
"1016",9.0636520386,-5.4149894714,10.6210132973,0.4647101462,3,0
"1017",7.1352124214,-4.6427454948,8.5403744596,0.5403857231,3,0
"1018",5.8425006866,-3.5160384178,6.891061782,0.5339904428,3,0
"1019",6.0162892342,-2.4739055634,6.6738009744,0.3218864202,3,0
"1020",5.8721389771,-1.9161653519,6.8537260183,-0.1662728637,3,0
"1021",7.4606356621,-1.5373032093,8.5581823448,-0.7013296485,3,0
"1022",8.9006414413,-1.2332854271,10.6456432189,-0.9901747704,3,0
"1023",10.6555919647,-1.8353333473,12.6035862981,-1.042401433,3,0
"1024",11.7839450836,-3.0237121582,13.1609922004,-0.839889884,3,0
"1025",11.7839450836,-3.0237121582,13.1609922004,-0.5009499192,3,0
"1026",12.6347761154,-4.277504921,13.3780958924,-0.0671489462,3,0
"1027",7.9616436958,-2.8063640594,8.5180185856,0.0053289854,3,0
"1028",7.9574522972,-2.2391936779,8.5460903219,-0.1513509005,3,0
"1029",8.2737445831,-2.1466858387,8.9803481125,-0.2280922979,3,0
"1030",8.1875238419,-0.8499325514,8.8851887419,-0.3698502183,3,0
"1031",9.6942901611,-0.9342073202,10.4109803409,-0.3527966738,3,0
"1032",10.5448217392,-0.611328721,11.2830342496,-0.3325457275,3,0
"1033",10.4909343719,-0.8259823322,11.089897067,-0.2334215492,3,0
"1034",10.8193511963,-1.6392412186,11.3281465517,-0.2131700665,3,0
"1035",9.7963781357,-2.3511607647,10.3222369841,-0.2579359412,3,0
"1036",9.0337142944,-1.5512242317,9.3182621481,-0.1886559278,3,0
"1037",9.6748313904,-1.4935940504,10.1218558245,-0.153482765,3,0
"1038",10.0517473221,-1.8233582973,10.6246546072,-0.2344873399,3,0
"1039",9.244925499,-1.8790425062,9.7365806371,-0.3368089199,3,0
"1040",10.0628242493,-1.9104771614,10.4958931294,-0.4167476892,3,0
"1041",10.8326730728,-1.9013460875,11.3359011565,-0.5137400031,3,0
"1042",10.0816850662,-1.8407222033,10.4164164602,-0.4604474902,3,0
"1043",9.0807161331,-1.7211209536,9.5597099273,-0.2781874239,3,0
"1044",8.9256391525,-1.8491047621,9.7841336323,-0.2153021991,3,0
"1045",9.0141048431,-2.0582199097,10.2305735276,-0.3005699515,3,0
"1046",8.480764389,-2.1885988712,9.5886964691,-0.2142358571,3,0
"1047",8.3318243027,-2.3474185467,9.4986812279,-0.0788729787,3,0
"1048",9.3059978485,-1.485660553,10.4750414718,-0.069280535,3,0
"1049",9.8754138947,-0.4957690537,10.9793055681,-0.031975776,3,0
"1050",10.620265007,0.0056881714,11.6012527579,0.0458314046,3,0
"1051",10.0637226105,0.3637436032,10.5534882334,0.0191851463,3,0
"1052",8.748257637,-0.317489773,8.7905172407,0.0362386964,3,0
"1053",8.1501016617,-1.3486953974,8.2614767991,0.1119140163,3,1
"1054",9.6983318329,-2.1736299992,10.0673717766,0.1374944746,3,0
"1055",10.6365814209,-2.4396266937,11.4195816514,0.1460211277,3,0
"1056",11.5892000198,-0.622705102,12.5140436247,0.1385602802,3,0
"1057",10.4178857803,0.1480421424,11.6479888359,0.0223825369,3,0
"1058",8.5565071106,-0.7197033763,9.2339342144,-0.0106590362,3,0
"1059",8.0784006119,-1.1783496141,8.5065587489,0.0405018851,3,0
"1060",8.2047386169,-1.3299843073,8.7167892165,0.1737331748,3,0
"1061",8.9304294586,-2.0089724064,9.4886543386,0.2014452368,3,0
"1062",10.0719556808,-2.4397764206,10.7299952116,0.1662723273,3,0
"1063",9.4808349609,-1.0499167442,10.0195868359,0.1374944746,3,0
"1064",8.7781953812,0.6800358295,9.0384079178,0.362388581,3,0
"1065",9.1114025116,-0.2706372142,9.2296797794,0.5041467547,3,0
"1066",8.9528827667,-1.8064434528,9.1904030709,0.6277853847,3,0
"1067",8.8663625717,-1.4823673964,9.0663864747,0.7471604943,3,0
"1068",8.3182020187,-0.5375322104,8.6301409009,0.7738067508,3,0
"1069",8.2150669098,-0.9907896519,8.5303637146,0.7162510753,3,0
"1070",11.4131660461,-2.1071681976,11.9862579498,0.660826385,3,0
"1071",12.2647457123,-1.028960228,12.9237648114,0.7279753685,3,0
"1072",10.3852539063,0.1904040575,10.9436997635,0.7311727405,3,0
"1073",11.5698900223,-0.1960922182,11.8076678691,0.0415676832,3,0
"1074",11.0784626007,-0.701890409,11.190100341,-0.3634551764,3,0
"1075",11.4167585373,-1.5738272667,11.5257829975,-0.4775010645,3,0
"1076",11.6796121597,-2.5837769508,11.9713702409,-0.367718637,3,1
"1077",12.5790920258,-2.955603838,12.9996672368,-0.1609438807,3,0
"1078",12.0038375854,-1.5747253895,12.1094953371,0.0074605793,3,0
"1079",11.5049257278,-1.7245637178,11.6468451555,0.0383702926,3,0
"1080",9.8384408951,-3.5604958534,10.5306352838,-0.1374950111,3,0
"1081",8.7258043289,-3.6717145443,9.498083624,-0.4369986355,3,0
"1082",9.1356525421,-2.5728497505,9.5212550053,-0.5691641569,3,0
"1083",12.0417089462,-0.8797206283,12.1479181209,-0.3037673533,3,0
"1084",12.3388414383,-1.4341676235,12.4282947002,0.0031973913,3,0
"1085",11.8493595123,-1.2901670933,11.9831927536,0.1310991645,3,0
"1086",9.1916360855,-2.5761427879,9.8099451323,0.3581253886,3,0
"1087",8.1745014191,-3.2530353069,8.9912592511,0.5979414582,3,0
"1088",7.9718227386,-5.3443365097,9.7144263362,0.6821436882,3,0
"1089",9.2006168365,-5.4063076973,10.7549217845,0.6117976308,3,0
"1090",9.5881614685,-3.3126113415,10.4463434274,0.3293472826,3,0
"1091",8.2469501495,-1.4154565334,8.7968619907,0.3400060534,3,0
"1092",6.7605414391,-0.8678951859,7.1400330546,0.2707257569,3,0
"1093",7.8971276283,0.1022373959,7.8986152304,-0.1822606176,3,0
"1094",10.7600746155,-0.871637404,11.124894731,-0.4508548081,3,0
"1095",12.1527786255,-2.6337730885,12.8218287304,-0.4966864586,3,0
"1096",12.0599708557,-5.7591238022,13.4154775025,0.0767408535,3,0
"1097",9.7908401489,-5.2533254623,11.2018698358,0.4338006973,3,0
"1098",9.3149795532,-4.167034626,10.5593018515,0.2547377646,3,0
"1099",10.4599485397,-2.0769309998,11.0787189792,0,3,0
"1100",9.0160512924,-3.2323782444,9.5931567279,0.1705357879,3,0
"1101",8.8299875259,-3.8264927864,9.6482738157,0.1684039235,3,0
"1102",10.0724039078,-2.4017555714,10.7532393432,-0.0394368879,3,0
"1103",10.1843719482,-1.9826271534,10.8792256882,-0.2600677907,3,0
"1104",9.8113470078,-1.2850776911,10.1571679273,-0.3698502183,3,0
"1105",9.4125766754,-0.1932481378,9.7801516955,-0.2771216333,3,0
"1106",9.6029806137,-0.9903405905,10.4525308711,-0.0873998851,3,0
"1107",9.1290664673,-2.1415965557,10.3735839613,-0.0277125873,3,0
"1108",8.6897296906,-2.2152433395,9.9081663571,-0.0213172734,3,0
"1109",8.9248905182,-1.912273407,10.0803727357,0.0085263764,3,0
"1110",9.5154123306,-1.5299683809,10.6507729693,-0.0554246418,5,4
"1111",8.9156103134,-2.0634589195,10.0027530695,-0.0937952027,3,0
"1112",8.7669687271,-2.5411157608,9.6648511387,-0.1716023833,3,0
"1113",9.1618480682,-2.7869045734,9.865941009,-0.1694702506,3,0
"1114",10.8994340897,-2.7164011002,11.5619477011,-0.0735439956,3,0
"1115",10.2268829346,-1.5468832254,10.8669526591,-0.0532925166,3,0
"1116",9.0759267807,-1.5968792439,9.6799523269,-0.0810051039,3,0
"1117",8.4665441513,-1.8838325739,9.0552271632,-0.1183098629,3,0
"1118",8.2473993301,-1.7333953381,8.6616176668,-0.1929191202,3,0
"1119",9.4919118881,-0.999321878,10.0527353237,-0.2376847267,3,0
"1120",11.4588212967,-0.6593788266,12.4832761661,-0.0969925895,3,0
"1121",10.5612878799,-0.164956972,11.3808377555,0.0692797378,3,0
"1122",9.4242525101,-0.2423460335,9.8204636058,0.1630749404,3,0
"1123",8.3180522919,-2.0098705292,8.5577646792,0.0522261858,3,0
"1124",8.3286800385,-2.7991790771,9.2073867334,-0.2355531305,3,0
"1125",8.9388113022,-2.7566673756,10.1811128967,-0.6437739134,3,0
"1126",14.7907428741,-1.0997630358,14.8522354447,-0.5862177014,3,0
"1127",15.3891983032,-0.6535409689,15.6691232473,-0.1769313663,3,0
"1128",11.3357772827,-1.5515235662,11.6990120234,-0.0788729787,3,0
"1129",9.6318702698,-2.2998175621,9.9378823261,0.0490287952,3,0
"1130",8.660241127,-2.1378543377,8.9475267627,-0.1417582035,3,0
"1131",8.5081567764,-1.3735437393,8.7678306919,-0.4391307533,3,0
"1132",9.5178079605,-0.7455995083,9.6674613188,-0.5915471911,3,0
"1133",10.2641553879,-1.4171031713,10.3619353984,-0.3741134107,3,0
"1134",10.3303184509,-3.4501752853,10.9359332025,-0.1033876389,3,1
"1135",10.6710090637,-2.7631042004,11.0543137774,0.0490287952,3,0
"1136",9.7356042862,-2.1517753601,9.9785341661,0.1716015786,3,0
"1137",9.6288766861,-2.2971231937,9.8991646925,0.1321649551,3,0
"1138",10.4006719589,-1.841620326,10.5825939571,0.1129798144,3,0
"1139",10.6045475006,-1.9350260496,10.7978501052,0.3922322392,3,0
"1140",9.3426713943,-2.601739645,9.7146737238,0.5595709085,3,0
"1141",8.8600749969,-1.9588265419,9.0792220958,0.4369980991,3,0
"1142",9.6502819061,-1.8735040426,9.834018317,0.2110379338,3,0
"1143",10.3277730942,-1.9341279268,10.5198626886,0.071411334,3,0
"1144",11.5360603333,-1.6244219542,11.6805921734,-0.024514664,3,0
"1145",10.0468072891,-0.7628137469,10.1594218304,0.2014452368,3,0
"1146",9.4128761292,-1.1344908476,9.6136189339,0.2153016627,3,0
"1147",8.2746429443,-1.7678238153,8.7868295775,0.1737331748,3,0
"1148",9.2557029724,-1.47593081,10.2446725538,-0.0031979238,3,0
"1149",9.7270727158,-1.5658936501,10.9494619298,-0.0341073722,3,0
"1150",9.6927938461,-1.8682649136,10.8961897744,0.0106582372,3,0
"1151",9.4922103882,-2.0139119625,10.3644355393,0.2366183996,3,0
"1152",8.4792671204,-2.3526575565,9.3286557965,0.452985853,3,0
"1153",7.9758639336,-3.5073564053,9.4574656712,0.4892248213,3,0
"1154",7.606282711,-3.8443057537,9.246311999,0.4274053872,3,0
"1155",7.7847118378,-3.3455429077,9.2527420516,0.2717915773,3,0
"1156",8.6030597687,-2.4960594177,10.3127463571,0.1097824275,3,0
"1157",9.2456731796,-2.8470795155,10.9552402168,0.1342968196,3,0
"1158",9.9442710876,-1.7908759117,11.1927416579,0.1566796303,3,0
"1159",9.7887439728,-2.3330483437,10.597759917,0.1801284999,3,0
"1160",8.940158844,-2.7500810623,9.8136817561,0.1598770171,3,0
"1161",8.1762971878,-1.8547929525,8.7820931569,-0.057556238,3,0
"1162",8.4729804993,-1.5340100527,9.0457571126,-0.1939849257,3,0
"1163",10.7141199112,-1.2740006447,11.2752182493,0.0031973913,3,0
"1164",11.4529838562,-3.2796797752,12.4541070376,0.2099721432,3,0
"1165",10.2333192825,-3.3256342411,11.028824926,0.4018249214,3,0
"1166",8.7891225815,-1.116079092,8.9663452753,0.0671481416,3,0
"1167",9.0358095169,-2.1139039993,9.6380526729,-0.1055192351,3,0
"1168",10.8841667175,-3.5326538086,11.4516833805,-0.140692398,3,1
"1169",13.3902549744,-3.1988480091,13.8598340979,-0.0778071806,3,0
"1170",12.8226356506,-1.1184741259,12.9024330388,-0.1545485705,3,0
"1171",10.9268274307,-1.0585986376,11.0563420112,-0.1492193192,3,0
"1172",10.6323900223,-1.9808307886,11.0923675965,-0.2920430303,3,0
"1173",11.0067615509,-2.9913794994,11.7288758336,-0.3005699515,3,0
"1174",11.8016080856,-1.9050883055,12.2011717187,-0.2717921138,3,0
"1175",12.7197990417,-1.7699193954,12.917434243,-0.1449561268,3,0
"1176",11.3996944427,-2.5731492043,11.6908091384,0.2515403628,3,0
"1177",11.3127250671,-0.9346563816,11.5498373441,0.5457149744,3,0
"1178",12.0628156662,-1.8520985842,12.6288180479,0.6810778975,3,0
"1179",10.990445137,-4.3260040283,11.9461440501,1.0999568701,3,0
"1180",9.283993721,-4.5511360168,10.4078492548,1.2598341703,3,0
"1181",8.1840810776,-4.0414457321,9.2080210177,1.2182662487,3,0
"1182",6.2815375328,-3.428021431,7.4262612964,0.9304869175,3,0
"1183",5.1084270477,-2.8045678139,5.8323432445,0.6757486463,3,0
"1184",4.0383024216,-0.7189549208,5.0673913755,0.0532919839,3,0
"1185",5.1986894608,-1.313668251,5.3625325947,-0.2643309832,3,0
"1186",8.4406471252,-3.0699660778,9.2113176806,-0.3474671543,5,4
"1187",11.2299470901,-4.3093886375,12.2152922048,0.2121037394,3,0
"1188",12.7316246033,-6.9485502243,14.5258096335,0.7951235175,3,0
"1189",11.5142059326,-6.8406248093,13.4145868873,0.8580089808,3,0
"1190",8.9323749542,-6.3776378632,10.9966855691,0.3954301476,3,0
"1191",6.8829865456,-3.6404297352,7.971435573,-0.6928027272,3,0
"1192",9.912686348,-2.7035279274,10.7122462702,-0.2248948961,3,0
"1193",12.426109314,-1.0123448372,15.3550498981,-0.2142358571,3,0
"1194",11.8427724838,-0.5804928541,15.0034887707,-0.5915471911,3,0
"1195",11.9069890976,-3.7895195484,12.4956883433,-0.2749894857,3,0
"1196",10.5256614685,-1.872456193,10.6939388756,-0.0053295181,3,0
"1197",9.8736181259,-1.1385324001,9.9424326429,-0.0159880221,3,0
"1198",9.5240945816,-2.1374051571,9.8582424475,-0.3368089199,3,0
"1199",9.1780138016,-3.0341904163,9.6721814528,-0.4338012338,3,0
"1200",8.4665441513,-2.9201276302,9.1906811663,-0.5212011337,3,0
"1201",10.0771942139,-3.4878969193,11.0905306591,-0.1481535137,3,0
"1202",10.7220535278,-3.6036062241,11.8009571011,-0.2867140472,3,0
"1203",9.1772661209,-3.523373127,9.8813463895,-0.2440800518,3,0
"1204",8.6657791138,-2.5066874027,9.0219628124,-0.1183098629,3,0
"1205",8.4708843231,-3.435505867,9.1433894224,-0.0223830696,3,0
"1206",9.7787151337,-2.9970674515,10.249712312,0.0117240343,3,0
"1207",10.0348320007,-2.9276120663,10.5790027158,0.0778066516,3,0
"1208",9.9197216034,-2.6993367672,10.4492691296,0.1577454209,3,0
"1209",8.8424119949,-2.7410998344,9.5539784079,0.2195648551,3,0
"1210",8.8290901184,-3.1046936512,9.5990913756,0.1577454209,3,0
"1211",10.3469333649,-3.9362146854,11.315105665,0.1460211277,3,0
"1212",10.9913434982,-2.6894571781,11.5285912734,0.21316953,3,0
"1213",9.4185638428,-2.5153691769,9.7837437385,0.272857368,3,1
"1214",8.5356998444,-3.098107338,9.2123997428,0.2995036244,3,0
"1215",8.4816627502,-3.4962794781,9.5552843583,0.1684039235,3,0
"1216",10.1803302765,-2.5098307133,10.8891001527,-0.0309099797,3,0
"1217",10.9843082428,-2.0965402126,11.435415276,-0.0159880221,3,0
"1218",10.5309009552,-3.1070888042,11.0853328957,0.0778066516,3,0
"1219",10.3313655853,-3.321293354,10.8530290023,0.2856471837,3,0
"1220",10.2649040222,-3.2519874573,10.8413850256,0.394364357,3,0
"1221",12.1738843918,-2.2032682896,12.4630912618,0.3591911793,3,0
"1222",11.8709144592,-1.955832839,12.0322455453,0.4711052179,3,0
"1223",11.265124321,-2.1170475483,11.4784097762,0.6650901437,3,0
"1224",11.4146633148,-2.8265721798,11.7702520626,1.0114915371,3,0
"1225",11.9511470795,-3.5744168758,12.5621210297,1.4026582241,3,0
"1226",12.199930191,-4.0339612961,12.9686246935,1.7021620274,3,0
"1227",9.9926204681,-4.7500720024,11.152087549,1.8556445837,3,0
"1228",6.7526078224,-5.5977592468,8.7760398314,1.5167040825,3,0
"1229",2.9325516224,-5.3619995117,6.2244108113,0.9123672843,3,0
"1230",2.5548870564,-3.4078133106,4.3280395059,0.493488282,3,0
"1231",4.5364665985,-3.0611343384,5.672820882,0.3687838912,3,0
"1232",6.2069926262,-5.3539166451,8.4177362751,0.1087166294,3,0
"1233",6.7949695587,-6.1813955307,9.2893384631,-0.1566801518,3,0
"1234",8.0179262161,-5.9754238129,10.0830452197,-0.3389405012,3,0
"1235",9.6866569519,-4.6455893517,11.2358736994,-0.6139297485,3,0
"1236",9.7445859909,-4.2198748589,10.7851438705,-0.886787653,3,0
"1237",9.473649025,-4.9096403122,10.8046080613,-0.8793265224,3,0
"1238",9.6028308868,-5.6654186249,11.4617815598,-0.5862177014,3,0
"1239",9.4925098419,-7.2883439064,12.0089427687,-0.283516407,3,0
"1240",8.8992938995,-7.2429881096,11.4753611788,-0.2451458424,3,1
"1241",8.360414505,-5.696703434,10.1556336201,-0.1268365085,3,0
"1242",9.4140729904,-4.6638512611,10.5094815995,0.0948602036,3,0
"1243",10.8428525925,-5.6697597504,12.2624423618,0.245145306,3,0
"1244",11.14731884,-7.1409006119,13.2623636395,0.5542418957,3,0
"1245",9.5173587799,-7.3842945099,12.305923797,0.5979414582,3,0
"1246",5.5327944756,-5.4636383057,7.8465879861,0.0405018851,3,0
"1247",5.6504497528,-5.3700828552,7.8027805752,-0.0969925895,3,0
"1248",7.5194630623,-5.1103730202,9.1285477104,-0.2483432293,3,0
"1249",9.5103235245,-5.5016593933,11.0367818908,-0.2163679898,3,0
"1250",10.5987100601,-6.2641735077,12.3903725443,-0.1929191202,3,0
"1251",9.2224721909,-5.9257273674,11.0513404551,-0.3943648934,3,0
"1252",7.5856256485,-5.6200628281,9.607474882,-0.6299177408,3,0
"1253",7.42441082,-5.5556969643,9.381561018,-0.6874734759,3,0
"1254",8.9111194611,-5.1311798096,10.2838988443,-0.6117981672,3,0
"1255",11.2389287949,-4.0707845688,12.4871143301,-0.4316696525,3,0
"1256",11.0343036652,-3.6341428757,12.1744722037,-0.4327354431,3,0
"1257",10.6862773895,-3.1313383579,11.787123453,-0.3773113489,3,0
"1258",9.4523935318,-0.8030799627,10.9736459787,-0.1939849257,3,0
"1259",8.5722236633,-1.6822018623,9.6557372121,-0.0490293279,3,0
"1260",8.2935037613,-2.1423449516,9.3622577794,-0.031975776,3,0
"1261",8.9385118484,-2.9074039459,9.6360829936,-0.1236388534,3,0
"1262",11.9337835312,-3.3356635571,12.5848493526,-0.0724781975,3,0
"1263",11.5902481079,-1.9431092739,12.0506945145,0.0405018851,3,0
"1264",10.1141672134,-1.6254698038,10.5667531857,0.1534822285,3,0
"1265",6.20744133,-2.5200095177,6.9255058462,0.2089063525,3,0
"1266",5.4332513809,-3.0048513412,6.4694528981,0.1843916774,3,0
"1267",5.5814433098,-3.0677206516,6.6284849969,0.1481527239,3,0
"1268",9.4499988556,-4.5800256729,10.6369059557,0.1854574829,3,0
"1269",11.8610343933,-3.8944513798,12.9763884696,0.3901006281,3,0
"1270",10.2083215714,-3.1819331646,11.2572886274,0.579821825,3,0
"1271",5.1621651649,-2.4653732777,6.2500915521,0.8484160304,3,0
"1272",3.6283049583,-4.6669950485,6.0464980528,0.9379475117,3,0
"1273",5.1454000473,-5.3052678108,7.4045804874,0.8899844885,3,0
"1274",12.9601993561,-4.0209383965,13.7464439649,0.6682875156,3,0
"1275",10.6659202576,-0.3400927782,12.0904236785,0.7386335731,3,0
"1276",7.86105299,0.0502954088,9.8215072985,0.936881721,3,0
"1277",4.9925680161,-2.9847931862,6.8369742517,0.8835892081,3,0
"1278",7.902367115,-4.5132646561,9.4480616605,0.660826385,3,0
"1279",13.329331398,-4.810696125,14.7308748038,0.660826385,3,0
"1280",12.538974762,-3.1240036488,13.9469810364,0.8462843895,3,0
"1281",6.4936466217,-4.7014231682,8.8411852889,1.2140027285,3,0
"1282",5.2036290169,-6.2050466537,8.1419960083,1.2310563326,3,0
"1283",6.3021945953,-5.6284456253,8.4507116797,0.9859110117,3,0
"1284",7.9721217155,-5.2829642296,9.6286241718,1.0424009562,3,0
"1285",8.7473602295,-4.8285088539,10.0891692453,1.2225294113,3,0
"1286",10.5642814636,-7.4664735794,13.1623132647,1.8353933096,3,0
"1287",12.4301509857,-9.6378583908,15.836182241,1.7458618879,3,0
"1288",11.9096832275,-9.7062654495,15.7340229681,0.9773840904,3,0
"1289",9.0108118057,-7.6472973824,12.7983630087,0.431669116,3,0
"1290",7.4218659401,-7.9746665955,11.0341958929,0.5595709085,3,0
"1291",5.6534438133,-9.079369545,10.7026213813,0.6533658504,3,0
"1292",5.9439892769,-10.8989858627,12.4377030399,0.4018249214,5,4
"1293",8.5304603577,-9.9938173294,13.6799044502,-0.0746097863,3,0
"1294",8.6068019867,-8.379275322,12.9775160979,-0.3751792014,3,0
"1295",7.3857913017,-8.0224170685,11.7173879417,-0.6842760444,3,0
"1296",7.7989320755,-8.3575706482,11.7990238885,-0.9208949804,3,0
"1297",8.563542366,-7.9281134605,11.9349381659,-0.8121778369,3,0
"1298",9.197473526,-7.6550812721,12.1015189991,-0.3879698515,3,0
"1299",10.90766716,-7.1277279854,13.1986204871,0.0927286074,3,0
"1300",11.1241168976,-7.1697902679,13.6707287466,0.6693533063,3,0
"1301",9.3191709518,-7.9700260162,12.4948634466,1.0839691162,3,0
"1302",7.5089850426,-6.2400736809,9.7901465568,1.06478405,3,0
"1303",6.5895967484,-3.3382081985,7.4006460372,0.8612066507,3,0
"1304",5.125641346,-3.7800893784,6.4262505172,0.5968756676,3,0
"1305",6.7648825645,-5.5684204102,9.1118571072,0.48709324,3,0
"1306",8.0210704803,-5.5848860741,10.3842776078,0.4124836922,3,0
"1307",5.9198894501,-5.6642212868,8.315766804,0.1524164379,3,0
"1308",4.6370573044,-6.0049128532,7.7392000811,-0.1417582035,3,0
"1309",3.6482133865,-6.2727060318,7.5726643502,-0.4284717143,3,0
"1310",3.1207103729,-6.6132478714,7.3752842218,-0.7045270205,3,0
"1311",2.7761271,-6.3923072815,6.9802190035,-1.0583895445,3,0
"1312",2.608625412,-5.4928274155,6.1260817215,-1.355761528,3,0
"1313",3.5093023777,-4.7383966446,5.9616925922,-1.6573970318,3,0
"1314",4.4993433952,-4.1113505363,6.1361048711,-1.9942055941,3,0
"1315",5.7363710403,-4.262386322,7.2269415019,-2.3512654305,3,0
"1316",7.7082204819,-4.8901805878,9.1727196793,-2.4653110504,3,0
"1317",7.9683794975,-5.6130275726,9.794659183,-2.1317005157,3,0
"1318",7.8168945313,-5.2810182571,9.4353946586,-1.8705670834,3,0
"1319",8.6573972702,-4.3733057976,10.4208885081,-2.0794737339,3,0
"1320",11.2931156158,-2.3161334991,12.9439710568,-2.0954613686,3,0
"1321",11.9538421631,-3.035836935,13.6144799732,-1.6851090193,3,0
"1322",11.5272293091,-3.3272809982,12.7471328204,-0.8153757453,3,0
"1323",10.9411973953,-1.0006691217,11.1667427706,-0.8175073862,3,0
"1324",10.5216197968,-1.2332854271,11.5691202542,-0.9208949804,3,0
"1325",9.913734436,-3.4681379795,14.0411632836,-1.3866711855,3,0
"1326",10.315199852,-2.5914111137,13.1444157452,-1.5390878916,3,1
"1327",10.5238656998,-2.4337890148,12.7562001431,-1.5731949806,3,0
"1328",10.9796676636,-1.2403206825,12.0216377998,-1.5838534832,3,0
"1329",11.6177902222,-2.6599686146,12.143922493,-0.9326190352,3,0
"1330",11.4119682312,-3.9441480637,12.2916510803,-0.6501687169,3,0
"1331",9.6477375031,-5.1736912727,10.9606051296,-0.4625791013,3,0
"1332",9.5667562485,-1.3247451782,10.0914035585,-0.2131700665,3,0
"1333",13.1200666428,-1.3238470554,13.6544727417,-0.1257707179,3,0
"1334",13.8872213364,2.3475682735,14.1257086382,-0.4679086208,3,0
"1335",12.9947776794,-2.3733146191,13.2529529664,0.1268359721,3,0
"1336",11.5320186615,-5.9411454201,13.4762947211,1.3696168661,3,0
"1337",7.1724848747,-5.5693187714,9.5918038348,0.8548113108,3,0
"1338",6.5710353851,-1.2440629005,7.1845179467,-0.1449561268,3,0
"1339",8.3029336929,1.3620176315,9.4132877015,-0.7908611298,3,0
"1340",9.7860498428,1.1840378046,11.1183486086,-1.0882331133,3,0
"1341",10.2068252563,-1.7179774046,11.666418963,-0.8249682188,3,0
"1342",9.2600440979,-3.4724788666,10.3937737534,-0.3911672235,3,0
"1343",9.1142463684,-4.0933876038,10.2176737087,-0.2312896848,3,0
"1344",9.2850418091,-2.2143452168,9.6131296654,-0.6086007357,3,0
"1345",9.8658342361,0.4611909389,10.3777561433,-0.7343711853,3,0
"1346",11.519744873,-0.103584595,12.9217882073,-0.6682880521,3,0
"1347",12.7859611511,-1.7603393793,15.6537776982,-0.6757491827,3,0
"1348",9.9531021118,-4.214785099,12.9364555785,-0.2931088507,3,0
"1349",8.8454055786,-3.3594639301,9.9466713863,-0.0394368879,3,0
"1350",8.6991596222,-1.4708414078,8.8290021342,0.0298436489,3,0
"1351",8.0171785355,0.3183878958,8.0360221489,0.1545480341,3,0
"1352",9.4726018906,1.2112811804,9.6452123279,0.0735434592,3,0
"1353",11.1853399277,0.1160087585,11.6734711195,-0.2760552764,3,1
"1354",10.8970394135,-1.4867084026,12.6399109666,-0.604337275,3,0
"1355",9.0569162369,-1.2347822189,10.489622892,-0.4391307533,3,0
"1356",8.3834667206,-0.3083587587,9.6578869466,-0.2824506164,3,0
"1357",8.7855300903,-0.6292913556,9.9975872944,-0.2238291055,3,0
"1358",9.1015233994,-1.3207036257,10.0965919863,-0.3240188062,3,0
"1359",8.7436180115,-1.2768447399,9.2319704595,-0.4369986355,3,0
"1360",8.6410808563,-1.1389814615,8.8951779793,-0.4668428302,3,0
"1361",9.4003019333,-0.7929011583,9.6013300769,-0.4338012338,3,0
"1362",9.6700410843,-0.4837939441,10.1797347166,-0.3773113489,3,0
"1363",8.9744377136,-0.9611513019,10.2401812907,-0.4188793004,3,0
"1364",8.4388513565,-1.4124627113,10.1252972595,-0.3527966738,3,0
"1365",8.2279396057,-1.6226257086,9.8394486975,-0.327216208,3,0
"1366",9.0343132019,-1.4590159655,9.8854187676,-0.2376847267,3,0
"1367",9.0573654175,-1.0171349049,9.4221644824,-0.086334087,3,0
"1368",7.9653859138,-1.7241146564,8.3997114768,0.086333558,3,0
"1369",7.7902503014,-2.0776793957,8.3748893161,0.1545480341,3,0
"1370",8.1451616287,-0.4824467599,9.1006315746,0.2867135406,3,0
"1371",9.1819057465,-0.0266445931,10.4736010799,0.3645201623,3,0
"1372",9.2869873047,-0.7330256701,10.5303632323,0.3762447536,3,0
"1373",8.6458711624,-0.0591270439,9.2796066319,0.3432034254,3,0
"1374",8.5836000443,0.5438191295,9.252820384,0.2376842052,3,0
"1375",8.0167293549,0.5318440199,8.8840960244,0.1470869184,3,0
"1376",8.4033746719,0.0504450984,9.3792169878,0.0383702926,3,0
"1377",9.0398511887,0.6194119453,9.9643778526,-0.0138564268,3,0
"1378",9.4940071106,1.1130852699,10.5499402374,-0.0564904399,3,0
"1379",10.8271350861,0.1657054126,11.831491533,-0.1513509005,3,0
"1380",11.9512968063,0.1011895761,12.5311617194,-0.1161777377,3,0
"1381",11.8022069931,-1.0621911287,12.0935077495,-0.0703463331,3,0
"1382",14.1624984741,-1.6125966311,14.3826485893,-0.050095126,3,0
"1383",11.9005527496,-2.2234761715,12.1364308382,0.1310991645,3,0
"1384",8.538693428,-2.796933651,9.0363353944,0.8622724414,3,0
"1385",9.1702308655,-3.0572423935,9.7833670863,1.3813412189,3,0
"1386",15.2862119675,-7.0929999352,17.0319058073,1.3962631226,3,0
"1387",18.127155304,-3.2790811062,18.6302966069,1.304599762,3,0
"1388",11.7311048508,-0.1926493794,12.7643889969,1.5902477503,3,0
"1389",5.056784153,-1.2329859734,5.6914746157,1.3472341299,3,0
"1390",5.894742012,-4.1870927811,7.3187951273,0.4775005281,3,0
"1391",8.7205657959,-4.2697210312,10.3908584913,-0.2547385395,3,0
"1392",10.5132379532,-0.454005897,11.9892307277,-0.9081043601,5,4
"1393",10.8180036545,0.9139993191,11.2335535845,-1.0146894455,3,0
"1394",8.7663698196,-0.0338296518,8.7843980678,-0.9528702497,3,0
"1395",10.1075811386,-3.2540831566,10.6246635833,-0.5478473902,3,0
"1396",11.4121179581,-4.9753537178,12.5256718804,-0.3027015328,3,0
"1397",12.0050354004,-5.3807106018,13.6171208269,0.0468972027,3,0
"1398",10.6011047363,-5.3554134369,11.9537843211,0.6363122463,3,0
"1399",9.9155302048,-3.4654436111,10.5444705737,0.9272890091,3,0
"1400",10.5228176117,-2.8192374706,11.2172133049,1.1969490051,3,0
"1401",11.0108032227,-3.0879285336,11.9143077587,1.6243548393,3,0
"1402",10.7904615402,-4.885989666,12.0201361513,2.0613534451,3,0
"1403",9.4372749329,-4.3670186996,10.3987302445,2.1679384708,3,0
"1404",8.3458948135,-2.5879683495,9.0328629581,1.4762018919,3,0
"1405",8.1903676987,-1.6329542398,8.4932888689,1.1084837914,3,0
"1406",8.2896118164,-2.3698718548,8.6579196022,1.0839691162,3,0
"1407",8.6548519135,-4.6503796577,9.8267726241,0.9304869175,3,0
"1408",7.8456349373,-5.5530023575,9.6135010832,0.5137394667,3,1
"1409",6.3372216225,-4.3523492813,7.6896637143,0.175864771,3,0
"1410",5.7981925011,-3.433110714,6.7384052298,-0.0490293279,3,0
"1411",6.5909442902,-4.1939787865,7.8263332121,-0.3389405012,3,0
"1412",7.2557115555,-4.0174956322,8.2937644976,-0.6832102537,3,0
"1413",8.2929048538,-4.1077580452,9.2554107512,-0.967792213,3,0
"1414",8.4922904968,-4.923561573,9.8236852179,-1.1063524485,3,0
"1415",8.5047140121,-4.7990202904,9.7704624737,-1.0242820978,3,0
"1416",9.083111763,-4.3692641258,10.0818254168,-0.8217705488,3,0
"1417",9.6146564484,-4.0363564491,10.4523673702,-0.6395102143,3,0
"1418",10.0198631287,-4.1152424812,10.8564319163,-0.3986280859,3,0
"1419",10.1929035187,-4.350253582,11.0958776019,-0.3261504173,3,0
"1420",9.2398357391,-5.4313054085,10.7245167159,-0.1055192351,3,0
"1421",8.8433103561,-4.5725412369,9.9673282961,-0.1033876389,3,0
"1422",8.7488565445,-3.7420682907,9.5201812009,-0.158811748,3,0
"1423",8.873547554,-3.2620165348,9.4568327891,-0.1087171584,3,0
"1424",9.0887994766,-3.721560955,9.8630878694,-0.0746097863,3,0
"1425",9.1859474182,-3.9221439362,10.0551715963,-0.1183098629,3,0
"1426",9.5029888153,-2.791844368,9.904807771,-0.3591919839,3,0
"1427",8.7527484894,-3.0829889774,9.289869012,-0.4242085516,3,0
"1428",7.6797800064,-3.6811449528,8.5164707149,-0.3922330141,3,0
"1429",7.8429403305,-4.1785607338,8.9105021716,-0.4284717143,3,0
"1430",9.1316108704,-3.6483631134,9.8486401234,-0.6757491827,3,0
"1431",11.6309633255,-3.3437466621,12.1341486758,-0.7119881511,3,0
"1432",14.0310726166,-3.4401462078,14.6441717747,-0.6256545782,3,0
"1433",14.3112897873,-2.3035597801,14.6266076924,-0.4146161079,3,0
"1434",12.9636421204,-2.332000494,13.3697060064,-0.2057094872,3,0
"1435",10.7560329437,-2.7292745113,11.3186733199,-0.1609438807,3,0
"1436",12.1984329224,-2.7569668293,12.7919584525,-0.2376847267,3,0
"1437",13.2763414383,-1.6368461847,13.717689421,-0.3464013636,3,0
"1438",10.6859779358,-1.2052935362,11.0082415138,-0.2813847959,3,0
"1439",10.0468072891,-1.7676740885,10.5001801975,-0.2057094872,3,0
"1440",9.4874210358,-1.8471587896,10.3305661178,-0.2238291055,3,1
"1441",8.9820718765,-2.1538710594,9.6665971249,-0.2952409685,3,0
"1442",8.8736972809,-1.4057267904,9.0205327102,-0.3293478191,3,0
"1443",8.9994354248,-0.9080117941,9.1416232094,-0.3346773088,3,0
"1444",8.7518501282,-1.6384927034,9.0401626485,-0.4583159089,3,0
"1445",8.7084407806,-1.1044033766,9.0002606672,-0.610732317,3,0
"1446",9.6302242279,-0.0239501949,9.9811949344,-0.5808884501,3,0
"1447",10.0809364319,-0.6021977067,10.2930113703,-0.3837061226,3,0
"1448",10.7467517853,-1.7715660334,10.9616446671,-0.2376847267,3,0
"1449",11.1362419128,-2.8530669212,11.5551371458,-0.050095126,3,0
"1450",10.7900123596,-2.7481353283,11.1963735159,0.1417576671,3,0
"1451",10.1923046112,-1.9652632475,10.5016136746,0.2558035553,3,0
"1452",9.4326343536,-0.7074288726,9.5315733808,0.3666523099,3,0
"1453",9.1438856125,-0.4734654129,9.2780254684,0.3847716451,3,0
"1454",9.6728849411,-1.3669574261,9.9210671884,0.3730470836,3,0
"1455",9.8758630753,-3.0817914009,10.6330503596,0.3645201623,3,0
"1456",9.8287115097,-3.2928524017,10.7195368442,0.371981293,3,0
"1457",9.7457838058,-2.0260367393,10.3963741144,0.4210106134,3,0
"1458",9.5384645462,-0.6753954887,9.7951576882,0.443393141,3,0
"1459",9.4214076996,-0.917891264,9.5330636722,0.306964457,3,0
"1460",9.3465633392,-1.9091299772,9.5478690921,0.023448335,3,0
"1461",10.2723884583,-3.27683568,10.8223324209,0.1193748638,3,0
"1462",10.5434751511,-3.7124300003,11.2374832034,0.1438895315,3,0
"1463",10.3734283447,-4.2056541443,11.2622058352,0.1566796303,3,0
"1464",8.6255130768,-5.3479290009,10.3034254434,0.4338006973,3,0
"1465",8.3861608505,-5.6076388359,10.3942787573,0.5574392676,3,0
"1466",6.3825774193,-3.5678305626,8.2897440408,0.4455247521,3,0
"1467",9.2226219177,-3.2097752094,10.3127903753,0.2334210128,3,0
"1468",12.2346582413,-3.9044806957,13.3998763577,0.6437731385,3,0
"1469",12.006980896,-3.8865180016,12.7636412406,0.6821436882,3,0
"1470",11.3107795715,-3.0367350578,11.711803931,0.4018249214,5,4
"1471",9.7609024048,-1.9058368206,9.9531591106,0.3144255877,3,0
"1472",9.0518264771,-2.0366647243,9.2787334485,0.1673381329,3,0
"1473",10.5130882263,-1.8753002882,10.7560060268,0.0021315941,3,0
"1474",11.4059810638,-2.8370504379,11.9161972985,-0.1417582035,3,0
"1475",10.3689374924,-2.7280769348,11.0548534799,-0.2568701506,3,0
"1476",8.6506605148,-2.7412495613,9.4348993823,-0.2558043599,3,0
"1477",8.4632501602,-2.4924669266,8.9944114288,-0.2963067591,3,0
"1478",8.346493721,-2.3430776596,8.7664318019,-0.3282819986,3,0
"1479",8.3869094849,-2.8556118011,8.8718161446,-0.1822606176,3,0
"1480",10.7615709305,-3.7164716721,11.5166810171,-0.057556238,3,0
"1481",10.2012863159,-4.00522089,11.0822068027,-0.0735439956,3,0
"1482",8.0785503387,-3.0874795914,8.7887643179,-0.0916636065,3,0
"1483",8.2075824738,-2.0898041725,8.8096910694,-0.0426342785,3,0
"1484",9.0512275696,-2.1838088036,9.664560242,-0.0298441816,3,0
"1485",9.3697652817,-2.4498054981,9.8822400557,-0.0948610008,3,0
"1486",10.2684965134,-3.1163694859,10.8997640042,-0.0127906296,3,0
"1487",9.9489107132,-3.3838632107,10.65851003,0.1705357879,3,0
"1488",9.1979227066,-3.4078133106,9.9009244545,0.2867135406,3,0
"1489",9.537566185,-3.9314246178,10.4035666732,0.3144255877,3,0
"1490",9.2410335541,-3.7459602356,10.1214861012,0.281384021,3,0
"1491",9.1772661209,-3.1834299564,10.1140699377,0.1779963672,3,0
"1492",8.0613365173,-2.9108469486,9.2402118754,0.0831361637,3,0
"1493",7.5651183128,-3.6474649906,9.0125805559,0.0394360907,3,0
"1494",8.51085186,-4.6153521538,9.9237560502,0.0596872978,3,0
"1495",11.3425130844,-3.6402800083,12.3267628119,0.0255799294,3,0
"1496",10.4618940353,-2.6577231884,11.2936135804,0.0778066516,3,0
"1497",9.3202180862,-2.5851242542,10.1831678295,0.1108482182,3,0
"1498",8.4518737793,-3.3920960426,9.2965217074,0.1875890791,3,0
"1499",9.517209053,-3.3431479931,10.2067793513,0.0969917923,3,0
"1500",10.1044378281,-3.4209859371,10.7555775922,0.0554241091,3,0
"1501",9.8965196609,-2.3549029827,10.4439132997,-0.1268365085,3,0
"1502",8.6244649887,-2.0621118546,9.613604649,0.0767408535,3,0
"1503",8.7237091064,-1.6310082674,9.8245305461,0.2515403628,3,0
"1504",10.4177360535,-1.6187338829,11.3679720788,0.508409977,3,0
"1505",8.982670784,-2.0749850273,9.6115414542,0.4711052179,3,0
"1506",8.1710586548,-1.9273920059,8.7935561429,0.4242080152,3,0
"1507",7.7974352837,-1.4849121571,8.7667603327,0.4252738059,3,0
"1508",8.2002477646,-2.3827450275,9.6530021465,0.4199442863,3,0
"1509",9.9420251846,-2.892285347,11.3778267167,0.3954301476,3,0
"1510",11.0622959137,-2.8306136131,12.060551145,0.4220764041,3,0
"1511",10.3903427124,-1.5133529902,10.7838496073,0.3837055862,3,0
"1512",8.2978448868,-1.5687377453,8.6551773013,0.3144255877,3,0
"1513",6.9735484123,-2.7277774811,7.905281098,0.272857368,3,0
"1514",8.5600996017,-2.7455904484,9.6103336507,0.3101618588,3,0
"1515",9.9442710876,-3.0880782604,10.9826877649,0.4775005281,3,0
"1516",9.3467130661,-2.8008255959,10.286319677,0.6693533063,3,0
"1517",7.9073066711,-2.3144869804,8.6881076957,0.7226458192,3,1
"1518",6.1661276817,-3.4133520126,7.314550911,0.8985111117,3,0
"1519",8.0885801315,-3.2835717201,9.4715600203,0.8676016927,3,0
"1520",9.9242124557,-2.902913332,11.4407527447,0.8676016927,3,0
"1521",9.0784711838,-2.0071761608,10.3220603323,1.0274789333,3,0
"1522",9.0373067856,-3.0111382008,10.5409738265,0.9923060536,3,0
"1523",8.940158844,-2.2553598881,10.2714689624,0.9784499407,3,0
"1524",9.4279947281,-1.794318676,10.8275616652,1.1383274794,3,0
"1525",10.0994977951,-2.9505143166,11.3154603236,1.2704929113,3,0
"1526",10.2397565842,-2.8033704758,11.1750681762,1.2939414978,3,0
"1527",8.5903358459,-2.8268713951,9.358349064,1.2736903429,3,0
"1528",6.1668758392,-2.9744646549,7.0650346647,1.4175801277,3,0
"1529",6.0647883415,-3.885320425,7.6934300323,1.7021620274,3,0
"1530",8.989107132,-5.1841692924,10.9698012845,1.9473073483,3,0
"1531",10.7093296051,-3.9809715748,12.2081568231,1.7479937077,3,0
"1532",9.1341552734,-2.2634432316,10.8744545285,1.5870504379,3,0
"1533",6.6828527451,-3.855232954,8.4198564081,2.1103827953,3,0
"1534",7.1525759697,-5.3383488655,9.2998522183,2.3086307049,3,0
"1535",6.6175885201,-5.8179516792,9.2430385478,2.1636753082,3,0
"1536",3.5450780392,-6.2944107056,7.7606408686,1.7010962963,3,0
"1537",1.4334192276,-5.588778019,6.1320084938,1.7490595579,3,0
"1538",3.3156051636,-5.1479449272,6.4334028224,2.0506949425,3,0
"1539",8.5303115845,-9.517209053,12.7806811218,2.4866278172,3,0
"1540",9.4568843842,-10.1325788498,13.9207356305,2.3800427914,3,0
"1541",7.1145553589,-9.1717271805,12.2444906497,1.7543888092,3,0
"1542",9.2531576157,-14.5515403748,18.4787541644,1.9654270411,3,0
"1543",8.1983013153,-11.8140325546,14.4604199284,1.4527533054,3,0
"1544",5.4976177216,-13.245057106,14.4022563438,1.1383274794,3,0
"1545",3.8092784882,-12.3824005127,13.0243958668,0.7961898446,3,0
"1546",4.3087897301,-13.9713468552,14.6886739059,0.409286052,3,0
"1547",6.1426262856,-14.6925468445,16.0290578195,0.0788724422,3,0
"1548",5.1663565636,-12.3410863876,13.4198438464,-0.2717921138,3,1
"1549",5.5196218491,-11.7507143021,13.0319958663,-0.3794429302,3,0
"1550",5.5080957413,-11.369307518,12.654583103,-0.6181934476,3,0
"1551",4.8750624657,-11.5077695847,12.7578920361,-0.9049069881,3,0
"1552",3.6971616745,-10.3111581802,10.9928780822,-0.9603310823,3,0
"1553",3.4142501354,-9.3459653854,9.957135457,-0.8548118472,3,0
"1554",3.8110747337,-9.2796525955,10.0747238689,-0.8228366375,3,0
"1555",4.473297596,-7.0230956078,8.3574818972,-0.9166312814,3,0
"1556",5.2308721542,-9.222322464,10.6026005416,-0.9645943046,3,0
"1557",5.515879631,-10.8968896866,12.2235244828,-1.2193328142,3,0
"1558",5.3817586899,-11.2294979095,12.501916357,-1.2747569084,3,0
"1559",9.0786209106,-6.1721148491,11.2237272565,-0.7812684178,3,0
"1560",12.0686531067,-5.8907003403,13.4636526707,-0.327216208,3,0
"1561",10.376871109,-4.7400431633,11.603781748,0.449788481,3,0
"1562",2.5343797207,-5.4889354706,8.4305368584,0.3762447536,3,0
"1563",-0.1496887207,-7.7903995514,8.9639590556,0.3037668169,3,0
"1564",2.7620563507,-6.9742970467,7.8736086631,0.2803182006,3,0
"1565",5.5321955681,-7.2103557587,9.0899520232,0.2877793312,3,0
"1566",6.0526633263,-6.0132951736,8.5618165572,-0.1183098629,3,0
"1567",4.4433598518,-5.5092935562,7.1841720174,-0.7865979075,3,0
"1568",3.4178426266,-5.3217334747,6.3342057012,-1.2395837307,3,0
"1569",4.1311092377,-5.2455420494,6.682798355,-1.4122517109,3,0
"1570",5.5434222221,-4.9645762444,7.4420142058,-1.5156390667,3,0
"1571",5.6519465446,-6.0176362991,8.2557034285,-1.8204718828,3,0
"1572",4.3469605446,-7.342830658,8.5333258371,-2.3406066895,3,0
"1573",3.9142103195,-6.3854212761,7.6192294939,-2.5825545788,3,0
"1574",4.7560596466,-4.6166996956,7.1636397009,-2.5932133198,3,0
"1575",5.963748455,-3.7224590778,8.0231760014,-2.5591061115,3,0
"1576",7.6957964897,-3.3093183041,9.2673350617,-2.5740282536,3,0
"1577",12.4576940536,-5.4589977264,14.7019491344,-2.8287661076,3,0
"1578",14.9863853455,-5.5747075081,17.1359934917,-2.900178194,3,0
"1579",12.4999065399,-2.6761350632,14.0109504381,-1.9664936066,3,0
"1580",7.8733272552,-4.7482757568,9.9546518158,-1.0370724201,3,0
"1581",8.3081731796,-5.0630712509,9.8904329254,-1.2172012329,3,0
"1582",13.9435043335,-0.8671467304,14.0026694886,-1.5742608309,3,0
"1583",16.9604797363,-0.4605921805,17.0264095042,-1.2918105125,3,0
"1584",12.4542512894,-3.694018364,13.4502074726,-0.6832102537,3,0
"1585",10.3710336685,-3.2073802948,11.3258786835,-0.1417582035,3,0
"1586",11.5163021088,-1.7274078131,12.1281954301,0.0532919839,5,4
"1587",12.1581668854,-1.6172369719,12.6415882474,0.1918527931,3,0
"1588",10.6123313904,-2.4087908268,11.2667877401,0.4604469836,3,0
"1589",8.9946451187,-3.8014948368,9.9937480457,0.509476006,3,0
"1590",8.0194234848,-2.1426444054,8.5945281075,0.222762242,3,0
"1591",7.8923377991,-0.6050418019,8.5952777406,-0.2590017319,3,0
"1592",7.3455247879,0.4438270628,9.0134553993,-0.4796326458,3,0
"1593",7.8595561981,-0.0898132324,9.1924968807,-0.4306038618,3,0
"1594",9.0814647675,-0.5501060486,9.9451026864,-0.4540521801,3,0
"1595",11.1486663818,-1.3704001904,11.5802044565,-0.4689744115,3,0
"1596",11.4266386032,-0.7530839443,11.5124782367,-0.2813847959,3,0
"1597",11.5613584518,-0.6704557538,11.7011834483,0.1374944746,3,0
"1598",11.0058631897,0.71431458,11.5085052883,0.3730470836,3,0
"1599",10.4910840988,-0.0146694947,11.3694135761,0.3730470836,3,0
"1600",10.4018688202,-0.885558486,11.359358209,0.3048328757,3,0
"1601",9.4354791641,0.0348774716,10.1989397283,0.1289675683,3,0
"1602",9.2371416092,0.4144880772,9.6509718806,-0.0895320103,3,0
"1603",9.3751544952,0.3089575171,9.5651883604,-0.2568701506,3,0
"1604",8.901389122,0.1350192279,9.2657036352,-0.2920430303,3,0
"1605",9.1422386169,0.0740959197,9.7652413987,-0.2238291055,3,0
"1606",9.5302314758,-0.1341210902,10.2381396642,-0.1225730553,3,0
"1607",9.5718450546,-0.3035687208,10.3295180958,0.0383702926,3,0
"1608",9.8912811279,-0.678239584,10.5566328559,0.1204406619,3,0
"1609",10.1782341003,-1.3510904312,10.987083481,0.371981293,3,0
"1610",9.8664321899,-0.7204518318,10.4349208546,0.5766244531,3,0
"1611",9.7936840057,0.0220042411,10.3270283404,0.667221725,3,0
"1612",10.0342340469,1.202449441,10.5702414049,0.8739964962,3,0
"1613",10.6657705307,0.0513432324,11.2068198694,0.9390135407,3,0
"1614",10.6133794785,-0.3379971385,11.3153928988,0.9294205904,3,0
"1615",9.4609260559,-0.1441502422,10.2835824286,0.579821825,3,0
"1616",8.1210622787,-0.6478527784,8.8882270355,0.4849616289,3,0
"1617",8.1071414948,-1.2689112425,8.6852304252,0.7311727405,3,0
"1618",7.7628569603,-1.885928154,8.3669864406,1.0786398649,3,0
"1619",8.5788106918,-3.0362861156,9.6278472256,1.1980153322,3,0
"1620",9.9384326935,-3.9848635197,11.1939293485,1.1948174238,3,0
"1621",11.5845594406,-3.9320232868,12.5719923909,1.156447053,3,0
"1622",11.6224308014,-3.096760273,12.4827261016,1.1287347078,3,0
"1623",10.4123477936,-2.8830046654,11.3709454699,1.1980153322,3,0
"1624",8.7534971237,-3.3459920883,9.8142912378,1.2225294113,3,0
"1625",7.8791651726,-4.3307938576,9.5331481044,1.1372616291,3,0
"1626",7.2307138443,-5.6330857277,9.8622686671,0.9550010562,3,0
"1627",6.7764081955,-5.9656944275,9.6103586577,0.8409554362,3,0
"1628",5.9923386574,-5.5446200371,8.3536546761,0.7396993637,3,1
"1629",6.1974124908,-4.7482757568,7.8779259953,0.4156810939,3,0
"1630",8.2680568695,-2.6140141487,8.8084616641,-0.1609438807,3,0
"1631",9.8766117096,-1.5998730659,10.1553406294,-0.6235224605,3,0
"1632",9.1597518921,-2.1537213326,9.7682590198,-0.8441536427,3,0
"1633",7.7787241936,-3.1436128616,9.3121247696,-0.9784507155,3,0
"1634",6.8542466164,-3.7708084583,9.2288762744,-1.1148793697,3,0
"1635",7.455845356,-4.2291555405,9.8827982182,-1.2609010935,3,0
"1636",10.098151207,-4.3517503738,11.6374936801,-1.0733114481,3,0
"1637",14.8253202438,-3.9131624699,15.8171182153,-0.5350567698,3,0
"1638",12.4672737122,-4.4649152756,13.9259740958,-0.0799387768,3,0
"1639",9.2366924286,-3.1025981903,10.3868447218,0.0298436489,3,0
"1640",8.211025238,-2.2369482517,8.8590232066,-0.1939849257,3,0
"1641",8.4234333038,-1.7944684029,8.7340902374,-0.3485329449,3,0
"1642",9.1934318542,-2.5927584171,9.7518183651,-0.1396266073,3,0
"1643",9.4496994019,-3.3180000782,10.5324749786,0.0532919839,3,0
"1644",9.6469888687,-4.1617956161,11.2639737976,-0.0788729787,3,0
"1645",9.5634622574,-3.2612681389,10.8281859469,-0.2973725498,3,0
"1646",8.8555850983,-1.8381774426,9.4621853372,-0.1982486397,3,0
"1647",8.8115758896,-1.2380753756,9.2714072289,-0.0255804621,3,0
"1648",9.6323194504,-1.7194743156,10.1387232333,-0.0756755844,3,0
"1649",9.6965360641,-2.8475284576,10.4925943326,-0.2760552764,3,0
"1650",9.4705057144,-2.5970993042,10.2026135257,-0.3943648934,3,0
"1651",9.4594287872,-2.37271595,10.0786912389,-0.3421381712,3,0
"1652",9.6351633072,-2.5337810516,10.2506940653,-0.2526069582,3,0
"1653",10.3541183472,-1.4227912426,10.8930122025,-0.1854580045,3,0
"1654",10.5000648499,-1.1285033226,11.00391249,-0.1897217333,3,0
"1655",9.4496994019,-0.9385482669,9.7523452677,-0.1961165071,3,0
"1656",9.5898075104,-1.3311817646,9.9528590096,-0.2355531305,3,0
"1657",9.6218414307,-1.2187656164,10.0125310585,-0.2675283849,3,0
"1658",10.05818367,-1.1018586159,10.4982479995,-0.2909772396,3,0
"1659",10.0974025726,-1.3106744289,10.5060392904,-0.2781874239,3,0
"1660",9.6968355179,-1.5446379185,10.0963082393,-0.2984383702,3,0
"1661",9.2815990448,-1.1199710369,9.5365403799,-0.3698502183,3,0
"1662",9.4438610077,-0.6131250262,9.7876821216,-0.3847724497,3,0
"1663",9.6410017014,-0.2869532704,10.0438237281,-0.3698502183,3,0
"1664",9.6333675385,-0.4605921805,10.3503256926,-0.3549282551,3,0
"1665",9.5405607224,-1.214574337,10.1041527397,-0.3090968728,3,0
"1666",9.4610757828,-1.4030324221,10.0772479482,-0.1897217333,3,0
"1667",10.2336187363,-1.1452684402,10.9845357913,-0.0969925895,3,0
"1668",10.6759490967,0.0077838134,11.3774418149,-0.06501735,3,1
"1669",9.2048082352,0.259111166,9.8857876728,-0.0458319373,3,0
"1670",9.0280265808,-0.4541555643,9.4177961994,-0.0394368879,3,0
"1671",9.0614070892,-0.371976465,9.384712986,-0.0522267185,3,0
"1672",9.6169013977,-0.4120930433,9.8783857119,-0.0468977354,3,0
"1673",10.2646045685,-0.234412536,10.4035223058,0.0810045749,3,0
"1674",9.8441286087,-0.2525248826,9.9785322546,0.2142353356,3,0
"1675",8.1616277695,-0.3550616503,8.3612626556,0.3027010262,3,0
"1676",8.7626276016,-0.1694476306,8.9712901489,0.3964959383,3,0
"1677",9.2633371353,0.5785468817,9.5225073569,0.443393141,3,0
"1678",10.3973789215,1.1056008339,11.2230869082,0.475368917,3,0
"1679",9.5321779251,-0.0493972786,10.3405535504,0.5137394667,3,0
"1680",8.8451061249,-0.3936813474,9.5238088108,0.5808876157,3,0
"1681",8.7621793747,-0.4481680393,9.4454389111,0.7226458192,3,0
"1682",10.2270326614,0.5093907118,10.9066837082,0.8047164679,3,0
"1683",10.4196825027,0.4796026647,10.925941507,0.7983214259,3,0
"1684",9.0838603973,-0.9024732709,9.3131754585,0.8814575672,3,0
"1685",8.783285141,-1.313668251,9.2812323265,0.9017085433,3,0
"1686",9.244925499,-1.2308903933,9.7659265578,0.8409554362,3,0
"1687",10.3577108383,-1.0636880398,11.1111216185,0.6331143379,3,0
"1688",10.0852775574,-0.9098080397,10.7321647134,0.7365019917,3,0
"1689",8.5720739365,-1.8049465418,9.1459857577,0.8377577662,3,0
"1690",8.3235912323,-2.0276834965,9.2308572178,0.8782601953,3,0
"1691",8.7308940887,-2.2525157928,10.348006096,0.8175065517,3,0
"1692",9.0732316971,-2.7059230804,11.147334621,0.9326184988,3,0
"1693",8.8626203537,-3.1678624153,10.9495587822,0.9709890485,3,0
"1694",8.8615722656,-3.2162117958,10.2601844619,0.8739964962,3,0
"1695",9.7854509354,-2.293081522,10.4425497118,0.670419395,3,0
"1696",9.3751544952,-2.6969416142,10.0900029175,1.0146888494,3,0
"1697",8.9024372101,-3.3825159073,9.7816497429,1.1319323778,3,0
"1698",8.2626676559,-4.8240184784,9.800353873,1.2257273197,3,0
"1699",7.1426968575,-3.0454170704,8.7599234849,0.7247776985,3,0
"1700",6.5186443329,-2.5150699615,8.4517873104,0.7247776985,3,0
"1701",7.9421839714,-4.3128314018,9.7319685654,1.1404590607,3,0
"1702",9.324259758,-5.0437612534,11.0367020488,1.3248512745,3,0
"1703",8.4253797531,-4.4518923759,10.1317982398,0.9411454201,3,0
"1704",6.3358745575,-3.5521132946,8.163184481,0.6661559343,3,0
"1705",7.1377568245,-3.1410682201,9.0410833449,0.6928021908,3,0
"1706",7.8935351372,-5.2542238235,10.5650472786,0.8771944046,3,0
"1707",8.3918495178,-6.0059604645,11.4204267635,0.8249676824,3,0
"1708",7.8582086563,-5.3456835747,10.5399094475,0.6949337721,3,0
"1709",7.1172494888,-5.5663247108,9.5403836872,0.8462843895,3,0
"1710",7.0632119179,-5.4648356438,9.5762553296,0.8793259859,3,0
"1711",8.1364803314,-5.0756449699,10.3588911263,0.8164407611,3,0
"1712",7.8414435387,-6.0352993011,10.5702266083,0.7023949027,3,0
"1713",5.6603293419,-6.0123972893,9.0616850388,0.6554974318,3,0
"1714",4.4468026161,-6.8277516365,8.8901195416,0.7087899446,3,0
"1715",5.7038888931,-5.85851717,9.1847426241,0.7791360021,3,0
"1716",6.2028012276,-5.913752079,9.4835733644,0.7247776985,3,0
"1717",6.7675766945,-5.4729189873,9.5658080918,0.7492920756,3,0
"1718",5.7169117928,-4.7810578346,7.9603356311,0.7002633214,3,0
"1719",6.1128382683,-5.5330939293,8.4975488158,0.8963795304,3,0
"1720",8.8383703232,-6.4577212334,11.2277992751,0.9944376945,3,0
"1721",10.568772316,-7.1456904411,13.4942354681,0.6469707489,3,0
"1722",8.6343450546,-6.7270112038,12.5469601297,0.0948602036,3,0
"1723",5.1751880646,-6.8187704086,8.946477476,-0.06501735,3,0
"1724",2.0999829769,-7.46707201,8.1761349138,0.1012555137,3,0
"1725",6.4137125015,-8.6752099991,11.5021897595,0.2984378338,3,0
"1726",11.2853317261,-9.2977647781,16.0748770559,0.2163674533,3,0
"1727",15.4243745804,-8.2297363281,18.5092024726,0.0650165528,5,4
"1728",12.140953064,-6.3421611786,13.9418276239,-0.2174337804,3,0
"1729",7.5992474556,-7.3944730759,10.802811179,-0.4572501183,3,0
"1730",6.4831681252,-8.4997749329,10.8497624947,-0.4689744115,3,0
"1731",7.8588075638,-8.2286882401,11.8635191983,-0.442328155,3,0
"1732",8.8533391953,-7.9826002121,12.7662620806,-0.3101626635,3,0
"1733",8.0845384598,-7.434440136,11.6206203948,-0.3570598662,3,0
"1734",6.9775900841,-6.2987518311,10.0041304641,-0.4529863894,3,0
"1735",9.3655738831,-6.1754083633,12.0801935436,-0.3794429302,3,0
"1736",10.1420097351,-7.276368618,13.3242811628,-0.3293478191,3,0
"1737",8.1251039505,-6.5889983177,11.1616594466,-0.4764352441,3,0
"1738",5.0069379807,-5.7937021255,7.9896860394,-0.6693538427,3,0
"1739",5.3795132637,-5.3672389984,8.0014465931,-0.8707998991,3,0
"1740",7.7818675041,-5.6598801613,10.2106812145,-0.8516144753,3,0
"1741",9.3537483215,-6.3619203568,12.0981399494,-0.755687952,3,0
"1742",9.6044769287,-5.1184558868,11.4466569443,-0.7727414966,3,0
"1743",8.8742961884,-5.2530264854,10.7376282939,-0.7823342085,3,0
"1744",8.0689706802,-5.7455019951,10.1978362837,-0.7908611298,3,0
"1745",7.8727283478,-5.8227415085,10.5166903859,-0.6960000992,3,0
"1746",7.8827576637,-5.2241363525,10.6046511396,-0.5712957382,3,0
"1747",8.2960481644,-5.202132225,10.9279405072,-0.5073447227,3,0
"1748",6.5189437866,-3.946842432,8.3402156131,-0.2920430303,3,0
"1749",5.0022978783,-3.9863603115,6.8381575636,-0.250475347,3,1
"1750",5.0626220703,-4.3321413994,7.0277649783,-0.2941746414,3,0
"1751",5.7710990906,-4.4698548317,7.7737294818,-0.3165577054,3,0
"1752",8.2402143478,-5.6230568886,10.7364078912,-0.2398163229,3,0
"1753",9.3682689667,-6.0826010704,11.779880272,-0.2632651925,3,0
"1754",11.8852844238,-4.2432260513,13.457091913,-0.4114187062,3,0
"1755",9.7348566055,-3.9404058456,10.9809613628,-0.2941746414,3,0
"1756",8.7061958313,-4.4611730576,10.2184170077,-0.2568701506,3,0
"1757",8.1385755539,-5.3145484924,10.6742979011,-0.2430142462,3,0
"1758",9.1359519958,-5.3268227577,11.4252724246,-0.1801290214,3,0
"1759",9.7270727158,-5.2705397606,11.8710918219,-0.1033876389,3,0
"1760",9.0528745651,-4.8916778564,11.0274703599,-0.0373052955,3,0
"1761",8.855884552,-5.3655920029,10.9417228176,-0.0031979238,3,0
"1762",9.498497963,-5.9724302292,12.00294967,-0.0234488677,3,0
"1763",9.4699068069,-5.4239706993,11.6878263867,-0.0394368879,3,0
"1764",9.174870491,-5.0244517326,11.1521029418,0.0341068394,3,0
"1765",8.583899498,-5.0386719704,10.639830886,0.0682139397,3,0
"1766",8.4875001907,-5.6583833694,10.7924770998,0.2099721432,3,0
"1767",9.2095985413,-5.756878376,11.5305261566,0.4071544409,3,0
"1768",9.9839382172,-6.1227178574,12.5441998092,0.512673676,3,0
"1769",9.7864990234,-4.6069698334,11.6522514296,0.6693533063,3,0
"1770",8.241112709,-5.0846266747,10.3600783073,0.8270992637,3,0
"1771",8.1126794815,-5.4539084435,10.2000763385,0.9464743733,3,0
"1772",7.3759117126,-5.7136182785,9.9764294358,0.9464743733,3,0
"1773",8.3075742722,-6.1963644028,10.9881687694,1.0146888494,3,0
"1774",9.1244258881,-6.504573822,11.9125479314,1.0562571287,3,0
"1775",6.3924570084,-5.2182984352,8.8041129818,0.9304869175,3,0
"1776",5.4211268425,-5.2956876755,7.7759339584,0.7706093788,3,0
"1777",8.5891389847,-7.0790791512,11.4454698155,0.950737834,3,0
"1778",10.1465005875,-7.1404514313,13.8545144556,1.3120609522,3,0
"1779",6.4617629051,-5.6758971214,9.5504493328,1.2310563326,3,0
"1780",2.7581644058,-6.2066931725,7.0078750999,0.7791360021,3,0
"1781",2.018851757,-6.1152334213,7.2406076562,0.6107318401,3,0
"1782",3.5871405602,-6.7362918854,8.2287434787,0.6277853847,3,0
"1783",5.5283036232,-6.8795437813,9.5985926232,0.5723612309,3,0
"1784",6.3324317932,-6.9085836411,10.1132242931,0.4199442863,3,0
"1785",4.6675934792,-7.0296816826,8.9917335694,0.1961159855,3,0
"1786",3.5833983421,-6.9448080063,8.0095272554,-0.050095126,3,0
"1787",3.2461495399,-7.0995864868,8.0781113054,-0.2771216333,3,1
"1788",2.9837453365,-6.7928743362,8.0507537678,-0.5094768405,3,0
"1789",3.5750157833,-6.2069926262,8.1931091198,-0.6618932486,3,0
"1790",4.2965154648,-6.081703186,8.2791602611,-0.8750630617,3,0
"1791",4.3381290436,-7.16335392,8.8944326068,-1.2022789717,3,0
"1792",4.6026287079,-6.3424606323,8.7419632107,-1.2939420938,3,0
"1793",4.5777802467,-5.5223164558,7.9006636715,-1.2800861597,3,0
"1794",4.2053546906,-5.145699501,7.4997538208,-1.3514983654,3,0
"1795",4.3954596519,-5.8487873077,8.1000895177,-1.4825974703,3,0
"1796",4.7632446289,-6.0504179001,8.5233882689,-1.4399636984,3,0
"1797",5.7458014488,-5.566174984,9.5835590723,-1.2086743116,3,0
"1798",7.1391043663,-6.4696960449,11.093720428,-1.078640461,3,0
"1799",8.5937795639,-4.8026127815,11.345513325,-0.9315532446,3,0
"1800",9.4014997482,-4.7123508453,11.4688903634,-0.8015193343,3,0
"1801",10.8745861053,-4.5719428062,12.9904867723,-0.6181934476,3,0
"1802",10.1484460831,-3.5518140793,12.1268447574,-0.3687844276,3,0
"1803",5.9002804756,-3.480711937,8.6692326,-0.4508548081,3,0
"1804",3.4432897568,-3.1879205704,6.285358357,-0.6149955392,3,0
"1805",4.9308962822,-6.0552082062,8.5393935241,-0.6075347066,3,0
"1806",9.4508972168,-6.4455962181,12.7282883028,-0.3421381712,3,0
"1807",10.3497772217,-4.6030778885,12.9700512337,-0.0724781975,3,0
"1808",8.6587438583,-1.9842736721,10.7928241909,-0.1502851099,3,0
"1809",7.9186830521,-1.98127985,9.3043980525,-0.2558043599,3,0
"1810",7.4714131355,-3.1722033024,9.1906110206,-0.4114187062,3,0
"1811",8.278834343,-5.6950569153,11.3531297309,-0.4028917849,3,0
"1812",9.8718214035,-6.5526237488,13.7322378394,-0.3751792014,3,0
"1813",10.4620437622,-5.0534911156,14.2310836789,-0.268594712,3,0
"1814",9.8484697342,-4.096830368,12.3353981833,0.0063947826,3,0
"1815",7.802075386,-3.8661603928,9.6955713918,0.1161772087,3,0
"1816",6.7298550606,-3.8766384125,8.7467300845,0.0522261858,3,0
"1817",7.3319034576,-4.221072197,9.5788876602,-0.1374950111,3,0
"1818",8.8175640106,-3.9362146854,11.1811020954,-0.3591919839,3,0
"1819",9.1500225067,-3.7929625511,11.5360385287,-0.5222669244,3,0
"1820",8.8919591904,-4.2947192192,11.0814618895,-0.5265301466,3,0
"1821",9.0106620789,-4.9391288757,11.3962358384,-0.4156818986,3,0
"1822",10.40965271,-4.8068041801,12.373552334,-0.2494090348,5,4
"1823",9.9947156906,-4.0435414314,11.2978971027,-0.1087171584,3,0
"1824",9.5504398346,-4.6255311966,11.2815137499,0.1779963672,3,0
"1825",9.8291597366,-4.4430603981,12.0503887193,0.1918527931,3,0
"1826",9.4049425125,-4.3016047478,11.9177914246,0.2153016627,3,0
"1827",7.6088275909,-3.8917570114,10.9073317901,0.1353628784,3,0
"1828",7.6088275909,-3.8917570114,10.9073317901,0.1353628784,3,0
"1829",6.8368825912,-2.1417462826,7.9262981519,-0.4764352441,3,0
"1830",8.9087238312,-2.5089325905,9.5926851061,-0.4881595671,3,0
"1831",9.6236371994,-3.5019676685,10.9641816714,-0.382640332,3,0
"1832",8.3857116699,-3.3102164268,10.3738090107,-0.4849621654,3,0
"1833",7.966583252,-3.3269815445,10.1017169513,-0.5744936466,3,0
"1834",8.8677091599,-3.280577898,10.7871502197,-0.5414520502,3,0
"1835",10.7742948532,-4.3676176071,13.2751663456,-0.3549282551,3,0
"1836",11.3344297409,-3.7691619396,13.2920894416,-0.1524169743,3,0
"1837",9.6389055252,-3.3679962158,10.8070301487,-0.0202514753,3,0
"1838",9.1322097778,-2.6146128178,10.2460274791,-0.0117248334,3,0
"1839",8.6599416733,-2.2730231285,10.022531684,-0.031975776,3,0
"1840",8.5810556412,-2.4777975082,10.0382128167,-0.0852682963,3,0
"1841",8.6335964203,-2.8177404404,10.0359050847,-0.0714121312,3,0
"1842",7.7827658653,-3.0871801376,9.3299748872,-0.0937952027,3,0
"1843",7.2711296082,-2.5583298206,8.8631766638,-0.1566801518,3,0
"1844",6.8939142227,-2.5441095829,8.8079389308,-0.2344873399,3,0
"1845",7.985294342,-2.3287074566,10.3674722962,-0.2877798676,3,0
"1846",9.5100240707,-3.557202816,11.9203371028,-0.069280535,3,0
"1847",10.2408037186,-4.7927336693,12.8325068881,0.0778066516,3,0
"1848",8.4916915894,-3.8535864353,10.8953736733,0.3016352057,3,0
"1849",8.8918094635,-3.3546738625,10.7738450425,0.1854574829,3,0
"1850",9.1575069427,-3.1247520447,10.9884923216,0.1097824275,3,0
"1851",8.9154605865,-2.0429515839,10.6156363123,-0.0490293279,3,0
"1852",8.084239006,-1.4763798714,9.8532099727,-0.1918533295,3,0
"1853",8.3267345428,-1.5673905611,9.8529935519,-0.218499586,3,0
"1854",10.7189102173,-2.2829027176,12.1281092482,-0.1790632308,3,0
"1855",10.9837093353,-1.7881814241,11.9445300747,-0.1332312971,3,0
"1856",10.3011283875,-1.5280224085,11.0621258516,-0.0969925895,3,0
"1857",8.7605323792,-0.921184361,9.5324061959,-0.0426342785,3,0
"1858",9.4001522064,-1.4768289328,10.5809937141,0.0063947826,3,0
"1859",9.971663475,-1.2311897278,11.4761057867,0.104452908,3,0
"1860",9.8882875443,-1.6654367447,11.301262601,0.2184990495,3,0
"1861",8.6844902039,-1.1939172745,9.6926653473,0.4124836922,3,0
"1862",7.83979702,-0.2869532704,8.9054991288,0.4721710086,3,0
"1863",8.308921814,-0.3912863135,9.3586596692,0.3410718441,3,0
"1864",8.5520162582,-0.5137317181,9.5236037305,0.1513501108,3,0
"1865",8.4550180435,-0.8593629599,9.2967211286,0.0223825369,3,0
"1866",9.6794710159,-0.9412426949,10.4701957957,0.0522261858,3,0
