"","accelY","accelZ","accelMag","gyroX","risk","step"
"1",19.5429096222,-2.5071363449,19.7839966806,0.8814575672,0,0
"2",15.8481435776,-4.1484732628,16.852637273,1.7852982283,0,4
"3",15.3993768692,-4.5526328087,16.6353452231,2.4173474312,0,0
"4",13.3543291092,-1.5097603798,13.9665012128,2.3011698723,0,0
"5",12.0276384354,0.5767506361,12.0438106613,2.3725817204,0,0
"6",10.9191932678,1.1767029762,11.503382973,2.1348969936,0,0
"7",11.1022624969,-0.4730163515,11.8142359835,1.8790931702,0,0
"8",10.2876567841,-0.4779560864,11.141892884,1.7639814615,0,0
"9",8.0358896255,1.0606942177,8.630721696,1.418645978,0,0
"10",6.5723824501,0.4731660485,6.627050982,1.0306766033,0,0
"11",3.8911583424,-0.1255888343,3.9044158292,0.907038033,0,0
"12",1.6863931417,-1.8999989033,2.5606100044,0.4892248213,0,0
"13",0.9134005904,-2.25416255,2.43405867,-0.1396266073,0,0
"14",1.7363891602,-2.6490411758,3.1937362402,-0.7055928111,0,0
"15",3.0421237946,-2.9609925747,4.350245607,-1.193752408,0,0
"16",4.0359072685,-3.3334181309,5.235005355,-1.8034183979,0,0
"17",5.3383488655,-2.9264144897,6.2832204281,-2.3470020294,0,0
"18",6.4562244415,-2.4836351871,7.1764733692,-2.4749038219,0,0
"19",14.3175764084,-2.3875350952,14.9207250661,-1.4516880512,0,0
"20",19.5373725891,-8.000412941,22.0326767047,0.1694697291,0,1
"21",16.8091449738,-7.5793385506,19.0499590535,1.3376413584,0,0
"22",9.0561676025,-9.1027212143,12.9033637341,1.3461682796,0,0
"23",6.1126885414,-1.1117380857,6.4635236332,0.3869032562,0,0
"24",15.8623638153,9.9764537811,18.7670958845,-1.0189530849,0,0
"25",19.5342292786,9.2748632431,21.965508907,-0.4018254578,0,0
"26",13.5686836243,0.4387376308,13.7315855698,-1.0392041206,0,0
"27",7.2513709068,-3.6001634598,9.7612572264,0.7897945046,0,0
"28",8.8915100098,-5.0762438774,10.4682598853,0.3154913783,0,0
"29",13.6712207794,3.3708403111,14.2042943559,-0.917697072,0,0
"30",11.631562233,3.3296759129,12.1986571276,-0.8548118472,0,0
"31",8.1313905716,1.9118243456,8.4399491888,-1.3802762032,0,0
"32",7.7502832413,4.9472122192,9.4267124391,-1.9366496801,0,0
"33",7.3154373169,-0.3206332326,7.6903485239,-1.2001473904,0,0
"34",6.4732885361,0.2990780771,7.4072942199,-0.7301074862,0,0
"35",4.6071195602,0.751437366,5.670830076,-0.9400801659,0,0
"36",8.0475654602,-3.13433218,9.6846837042,-0.9901747704,0,0
"37",10.5032081604,-3.6780016422,11.7129796991,-0.9422117472,0,0
"38",11.4131660461,-0.7804769874,11.4621662919,-0.8079146743,0,0
"39",4.5804748535,1.0240205526,5.0351132553,-0.1929191202,0,0
"40",6.1450214386,-3.499423027,8.6356281643,0.0202509426,0,0
"41",10.9658966064,-4.1249718666,12.8801028315,0.2153016627,0,0
"42",7.9201798439,-0.2225871235,8.7604817416,0.7087899446,0,0
"43",6.2381277084,-0.0800834671,6.936050951,1.0626518726,0,0
"44",7.0548295975,1.0148894787,7.8629285541,1.0882322788,0,0
"45",8.5874919891,2.285597086,10.6476249805,0.8878529072,0,0
"46",10.7087306976,-3.2977921963,11.853054609,1.22039783,0,0
"47",13.6188297272,-5.7690033913,14.8987032742,1.8407223225,0,0
"48",15.1640663147,-0.5942642093,15.1757073478,3.8605082035,0,0
"49",19.5122241974,0.8699908257,19.5963547723,2.9119017124,0,0
"50",19.5738964081,-0.576451242,19.5898005203,2.7509582043,0,0
"51",16.1692256927,0.2270777822,16.2781625701,3.1527838707,0,0
"52",12.5359811783,-4.0519237518,13.6332008809,2.4045574665,0,0
"53",9.4061393738,-5.8309745789,12.9145965558,1.5465482473,0,0
"54",8.4888477325,-4.6216392517,11.666960431,1.5199019909,0,0
"55",5.4592971802,0.506247282,7.2878231127,1.025347352,0,0
"56",5.9139018059,-0.4595443606,6.3360807918,0.2579351366,0,0
"57",5.0476531982,-0.592617631,5.0840213289,-0.1385608166,0,1
"58",3.1600785255,-0.590372324,3.3739987054,-0.523332715,0,0
"59",1.798060894,-1.7130377293,3.4528681457,-1.0125578642,0,0
"60",0.9087602496,-1.6389417648,2.9322257884,-1.5817214251,0,0
"61",0.5307962298,-1.2150233984,1.3271577791,-1.8663035631,0,0
"62",1.7335450649,-1.1310479641,2.1930698873,-1.9366496801,0,0
"63",4.0960822105,-1.4922468662,4.463845289,-1.8726986647,0,0
"64",11.1324996948,-2.3372397423,11.4582791044,-1.7959573269,0,0
"65",19.2632923126,-2.5692572594,19.5554880854,-2.0837371349,0,0
"66",14.9781532288,-1.2772938013,15.0325193761,-1.6883064508,0,0
"67",11.3031454086,-4.7662386894,12.3795311849,-0.2728579044,0,0
"68",9.0344629288,-15.7245006561,18.348227999,0.9784499407,0,0
"69",5.0123267174,-10.0948572159,11.4957406822,0.2547377646,0,0
"70",7.0239934921,-5.4440288544,9.174227931,-0.7727414966,0,0
"71",19.1643466949,5.7866663933,20.0210460555,-0.8537460566,0,0
"72",19.5430603027,2.8268713951,19.7912321772,-0.1055192351,0,0
"73",11.5038776398,-1.3959970474,12.897123717,1.1383274794,0,0
"74",2.3531067371,2.0743863583,9.6095322015,0.2749889493,0,0
"75",7.188501358,0.1065783724,8.4279102223,0.2717915773,0,0
"76",7.8661422729,1.388662219,8.6673398368,-0.2931088507,0,0
"77",11.6507225037,3.5036141872,12.1662374621,-1.8258014917,0,0
"78",7.7754306793,2.674488306,8.2480369313,-1.682977438,0,0
"79",8.9410572052,0.5834866166,9.0373438567,-1.156447649,0,0
"80",11.5908470154,-6.3471012115,13.4568248805,-0.5851519108,0,0
"81",9.1293649673,-3.8535864353,9.9704328211,0.0778066516,5,4
"82",8.2116241455,-1.53520751,8.4079878475,0.3368081152,0,0
"83",7.0431537628,1.9931052923,7.4339196058,0.4806979001,0,0
"84",5.5022578239,-1.0535092354,6.6875772917,0.1183090657,0,0
"85",7.3368430138,-2.3661296368,8.5048827564,0.0500945933,0,0
"86",8.3810710907,-1.8841319084,9.023143681,0.2568693459,0,0
"87",4.7517185211,0.1002914459,5.213856853,0.3293472826,0,0
"88",2.9934749603,0.1559756398,3.2992461297,0.0085263764,0,0
"89",4.3948607445,1.6045134068,5.1159058808,-0.1460219175,0,0
"90",7.3631882668,0.6216572523,7.7952703075,-0.2003802359,0,0
"91",13.2383203506,-0.3128494322,14.1735233244,-0.2984383702,0,0
"92",9.4752960205,-0.7617658973,11.4166536726,-0.0468977354,0,0
"93",9.7962284088,-2.8837532997,12.0423219144,0.9816473126,0,0
"94",12.8111095428,-4.1028180122,15.5763304508,1.622223258,0,0
"95",19.3749599457,-4.4536886215,21.0626144632,2.5377881527,0,0
"96",19.5138702393,-3.4037718773,19.8518968574,2.7424316406,0,0
"97",16.7055606842,-1.2949571609,17.529937423,2.8159754276,0,0
"98",13.0136375427,2.8412415981,13.6024492863,2.6997978687,0,0
"99",13.4213905334,-4.9909214973,14.4468034106,2.3267502785,0,0
"100",12.7316246033,-5.8733363152,15.6492731383,1.975019455,0,0
"101",10.1479969025,-2.2469773293,13.1054437174,1.5678650141,1,0
"102",7.2024226189,0.3038681149,10.0811802691,0.8942479491,1,0
"103",6.5839085579,-0.1173559576,7.3150632881,-0.0937952027,1,1
"104",5.0142726898,-1.628313899,5.2913153624,-0.6586956382,1,0
"105",2.6384134293,-2.3587949276,3.6015891118,-0.9006435275,1,0
"106",2.0689973831,-3.1263985634,4.2358148245,-0.8665361404,1,0
"107",2.2873933315,-3.2901580334,4.888017148,-0.9891089201,1,0
"108",2.66700387,-1.9287391901,3.7480249926,-1.2790204287,1,0
"109",3.6827917099,-0.6068380475,3.791953834,-1.4538196325,1,0
"110",5.7029905319,-0.4053570628,5.7200282602,-1.6595286131,1,0
"111",7.4619827271,-0.6204597354,7.4892995159,-1.8353941441,1,0
"112",9.1789121628,-0.7726931572,9.2292945686,-1.8961474895,1,0
"113",10.0879716873,-1.9064354897,10.3079905505,-1.7725089788,1,0
"114",12.4479646683,-3.8648130894,13.1250395275,-1.6701871157,1,0
"115",12.6810293198,-5.6444621086,14.1985213034,-1.6456726789,1,0
"116",9.6383066177,-6.9892659187,12.0733321971,-1.1361966133,1,0
"117",9.0242843628,-7.9805045128,12.1484073553,-0.419945091,1,0
"118",10.9850568771,-6.8085913658,13.0016513656,-0.3517308831,1,0
"119",15.0006065369,-1.8985019922,15.1858336237,-0.7450294495,1,0
"120",19.4997997284,3.7266504765,19.8950846213,-0.6331151724,1,0
"121",19.5438079834,-1.8980529308,19.6547059149,0.3101618588,1,0
"122",13.8421649933,-2.9195287228,15.4041437098,0.6363122463,1,0
"123",5.5486617088,1.0499167442,9.4525107949,0.0490287952,1,0
"124",6.0927801132,2.1070184708,6.7278695603,0.2344868034,1,0
"125",7.0712952614,2.4447162151,7.5165611525,0.0223825369,1,0
"126",11.3073358536,2.9428801537,11.7411186255,-0.2270264924,1,0
"127",9.0861053467,2.8452832699,9.5877937441,-0.5073447227,1,0
"128",10.9834098816,0.4935237169,11.3500105131,-0.5009499192,1,0
"129",12.6184597015,-5.6844291687,14.6432230302,-0.3623893857,1,0
"130",9.2166337967,-0.8698411584,9.6738657836,-0.1481535137,1,1
"131",8.2888631821,0.6882687211,8.599758198,0.0532919839,1,0
"132",6.428232193,0.0978964269,6.8484536646,0.2046426237,1,0
"133",6.87849617,-1.4561718702,7.1681321294,-0.0223830696,1,0
"134",8.5036668777,-3.0473630428,9.160159998,-0.2696605027,1,0
"135",9.5481948853,-3.4611024857,10.3820857475,-0.2984383702,1,0
"136",6.3521904945,-0.4107458591,6.4811103416,0.0298436489,1,0
"137",5.8300762177,0.3932322562,6.0252298145,0.0607530959,1,0
"138",6.4300289154,-0.7364684939,6.887587797,0.0245141312,1,0
"139",8.7067937851,0.3650907874,9.0847051675,0.0927286074,1,0
"140",9.3459653854,0.6988966465,9.6250994789,0.0554241091,1,0
"141",7.5543408394,-0.1350192279,7.7551628882,0.0692797378,1,0
"142",6.5888485909,0.0838256851,6.6295006777,0.2142353356,1,0
"143",8.3671503067,0.8354127407,8.4177956406,0.4263395965,1,0
"144",10.5780525208,0.0745449811,10.6168946709,0.5680978298,1,0
"145",19.4098377228,-1.7039066553,19.655226834,1.072244525,1,0
"146",19.5450057983,-2.2842497826,20.0066250319,1.1106153727,1,0
"147",16.8733615875,-2.8919861317,17.7478137752,1.0402693748,1,0
"148",11.488609314,-1.7805473804,12.3056950232,0.8878529072,1,0
"149",10.3657941818,-3.1052925587,11.2983356972,0.7301069498,1,0
"150",10.6898698807,-1.6516653299,11.0465089557,0.623521924,1,0
"151",11.0175390244,-1.876198411,11.3434231293,0.863338232,1,0
"152",11.8123855591,0.2987786829,12.0920711801,0.0373044945,1,0
"153",11.6318616867,-1.9038908482,12.0752063299,0.6522997618,1,0
"154",9.9864826202,-5.2465896606,11.3872246082,1.4026582241,1,0
"155",8.8129234314,-4.4673099518,9.9477014542,0.6682875156,1,0
"156",9.6999788284,-2.9460237026,10.2176192005,0.5009493828,1,0
"157",9.2729167938,-1.6001724005,9.4167231555,0.7460947037,1,0
"158",7.5354800224,-1.4534775019,7.6865849144,0.7983214259,1,0
"159",7.3188800812,-1.4696438313,7.5000788367,0.8089799285,1,0
"160",8.3580198288,-2.3960673809,8.7037890196,0.8793259859,1,0
"161",9.0431442261,-3.6711158752,9.7777522356,0.8612066507,1,0
"162",9.4139232635,-3.8553826809,10.2002655743,0.8249676824,1,0
"163",8.2752418518,-4.2104444504,9.3460237422,0.5840855837,1,0
"164",7.4754548073,-4.2698707581,8.6174792243,0.3762447536,1,0
"165",7.3634877205,-4.3709106445,8.5631410679,0.2952401638,1,0
"166",7.55493927,-4.372856617,8.7295729756,0.1247038469,5,4
"167",8.196056366,-4.6159510612,9.4069284594,0.0724776611,1,0
"168",8.4502277374,-4.8127918243,9.7250128189,0.00959244,1,0
"169",8.9735393524,-4.1797580719,9.8994224919,-0.2707262933,1,0
"170",9.2679767609,-4.3875260353,10.2547715409,-0.3964964747,1,0
"171",9.1825046539,-4.9469127655,10.4613156468,-0.4124844968,1,0
"172",9.5851678848,-5.053041935,10.9069341319,-0.448723197,1,0
"173",9.2263641357,-4.9588880539,10.5328708386,-0.3805087209,1,0
"174",8.5877914429,-4.8606920242,9.9166597852,-0.3485329449,1,0
"175",8.8383703232,-4.9804430008,10.1993661123,-0.481764257,1,0
"176",8.8216056824,-5.0005016327,10.2106797201,-0.6725517511,1,0
"177",8.3881072998,-4.9680190086,9.7993561981,-0.8505486846,1,0
"178",8.3021850586,-4.5875101089,9.5560827726,-1.0125578642,1,0
"179",7.9559555054,-4.1038661003,8.9680252048,-1.1138136387,1,0
"180",7.3528594971,-4.7039680481,8.7315942367,-1.11594522,1,0
"181",7.8612027168,-3.95058465,8.7981099266,-1.0466651917,1,0
"182",9.4749965668,-3.7865259647,10.2784679788,-0.7759388685,1,0
"183",12.4168291092,-3.6407289505,13.105529876,-0.5030815005,1,1
"184",15.4917345047,-4.2005648613,16.2062078944,-0.1172440723,1,0
"185",13.1591358185,-4.0610551834,13.9407309307,0.3581253886,1,0
"186",8.7276010513,-4.317471981,10.0682504465,0.5041467547,1,0
"187",5.0475034714,-3.3810191154,7.0536243402,-0.0287783854,1,0
"188",6.7695226669,-2.1935384274,7.6636794808,-0.5798226595,1,0
"189",9.3961105347,-1.5521223545,10.0920068517,-0.6693538427,1,0
"190",11.8298997879,0.3787124753,12.4383029391,-0.6022056937,1,0
"191",12.2168445587,1.2642709017,12.9924540994,-0.6032714844,1,0
"192",10.1857185364,0.8291258216,11.049655505,-0.7162516117,1,0
"193",10.1138677597,-1.0205776691,10.8005181224,-0.5936787724,1,0
"194",9.4285926819,-2.5810825825,10.2007868893,-0.3975622654,1,0
"195",8.8829774857,-2.4679179192,9.3361152409,-0.3240188062,1,0
"196",8.287815094,-1.9808307886,8.5308998791,-0.2259607017,1,0
"197",8.837023735,-1.4332695007,8.9620617109,-0.2227627784,1,0
"198",9.9237632751,-2.9602441788,10.4499025039,-0.3282819986,1,0
"199",10.9890975952,-3.2344739437,11.9031456132,-0.3655867577,1,0
"200",10.6519994736,0.3664380014,11.4635520194,-0.1758655757,1,0
"201",9.2137899399,-0.6930587888,9.7116139208,-0.0671489462,1,0
"202",9.0885000229,-1.6387921572,9.6082757088,-0.0671489462,1,0
"203",8.6867361069,-1.0145901442,8.8911574595,-0.0362394974,1,0
"204",9.1892404556,-1.3709989786,9.355866706,-0.0383710898,1,0
"205",9.5883111954,-1.7926721573,9.8070784249,0.0330410413,1,0
"206",9.2778568268,-1.4145584106,9.3983969113,0.6491023898,1,0
"207",9.5079278946,-2.110461235,9.7984296669,0.9454085827,1,0
"208",11.6640443802,-3.0308971405,12.1437685713,1.1553809643,1,0
"209",14.5205545425,-3.5868411064,15.1677579941,1.2939414978,1,0
"210",15.2210979462,-2.4593856335,15.580235192,1.4879262447,1,0
"211",11.4755859375,-2.9696745872,11.8545130638,1.8993444443,1,0
"212",7.3706727028,-4.6744794846,8.9595708894,1.4069216251,1,1
"213",4.2016124725,-5.1274375916,6.9582911812,0.4519200623,1,0
"214",5.8172030449,-4.9897236824,7.6643733313,-0.3581261933,1,0
"215",8.4273252487,-3.5543587208,9.2858119247,-0.7663464546,1,0
"216",8.8919591904,-3.6082465649,9.9712301296,-0.9315532446,1,0
"217",9.330247879,-3.0877790451,10.3453146682,-1.2545057535,1,0
"218",8.6886816025,-2.5072860718,9.4422058095,-1.6488703489,1,0
"219",7.6243948936,-2.3629860878,8.140603913,-1.8758960962,1,0
"220",6.293961525,-1.5154485703,6.5500311698,-1.9068059921,1,0
"221",6.5577130318,-1.9100281,6.863172032,-1.8215377331,1,0
"222",7.7845621109,-2.6690995693,8.2514217192,-1.6126314402,1,0
"223",9.7246770859,-2.2363495827,9.9795919074,-1.2225302458,1,0
"224",11.291469574,-2.4670197964,11.5685689309,-0.7695441246,1,0
"225",11.6606016159,-2.7366092205,12.0564702435,-0.7482268214,1,0
"226",18.5166435242,2.3571481705,18.77387071,-0.6960000992,1,0
"227",15.1368227005,-3.3901500702,15.7073843726,0.3581253886,1,0
"228",9.2959690094,-4.8720684052,11.7253724777,0.3964959383,1,0
"229",3.3914973736,-3.8103263378,7.6022805858,0.0532919839,1,0
"230",9.9487609863,1.1041040421,11.1871590163,-0.1204414591,1,0
"231",13.0422286987,2.0155587196,14.2550393279,-0.0564904399,1,0
"232",9.0938892365,-1.8657202721,9.6153892987,0.1673381329,1,0
"233",9.007818222,-2.5583298206,9.376361392,0.1342968196,1,0
"234",10.3160972595,-0.9494755268,10.8028348381,-0.0042637209,1,0
"235",9.1667871475,-2.0850141048,10.1192584301,0.0330410413,1,0
"236",8.769364357,-2.6324257851,9.5374787537,0.0522261858,1,0
"237",8.0748081207,-1.4980846643,8.4443638893,0.1513501108,1,0
"238",8.5847978592,-0.8755293489,8.8477666246,0.3122934401,1,0
"239",9.2739648819,-1.2569361925,9.4896199588,0.493488282,1,0
"240",10.1509904861,-2.0399580002,10.5060229511,0.5904806256,1,0
"241",8.8921089172,-1.2766951323,9.1883905719,0.6256537437,1,0
"242",7.519762516,0.0043409728,8.0482946829,0.5659661889,1,0
"243",7.1419482231,-0.6494993567,8.1996667748,0.586217165,1,0
"244",8.7055969238,-1.6456778049,9.6680224115,0.6650901437,1,0
"245",11.3522424698,-1.2030482292,12.0830497621,0.6160607934,1,0
"246",10.3934869766,-0.322429508,11.0786904001,0.4966856539,1,0
"247",8.1617774963,-1.5614030361,8.9901280833,0.4785663188,1,0
"248",8.224946022,-3.2965946198,9.6809189623,0.5073441863,1,0
"249",11.3547878265,-4.4619212151,12.9835570591,0.2664620578,1,0
"250",15.3222875595,-2.6382637024,16.1779870319,-0.2163679898,1,0
"251",13.2685575485,-2.2231769562,13.7364446233,-0.3890356421,1,0
"252",9.9441213608,-4.1171884537,10.7989734868,-0.3442697525,1,0
"253",9.9875307083,-4.9734077454,11.3154272855,-0.2707262933,1,0
"254",12.178524971,-5.3120036125,13.6373022693,-0.06501735,1,0
"255",12.4638309479,-3.9261853695,13.6768194184,-0.1652070731,5,4
"256",11.1528577805,-3.2835717201,11.759996423,0.1396260709,1,0
"257",8.3321228027,-4.0625519753,9.3476823678,0.3272156715,1,0
"258",8.2518901825,-3.9151084423,9.4871052013,0.198247835,1,0
"259",9.3598861694,-3.3867073059,9.9537604352,0.3304130733,1,0
"260",9.1941804886,-4.0465350151,10.048888294,0.3677181005,1,0
"261",7.7011852264,-2.9093499184,8.2375773911,0.160943076,1,0
"262",6.6036677361,-1.552421689,6.8854501544,-0.1449561268,1,0
"263",6.1492128372,-1.4784754515,6.5212565357,-0.2792532146,1,0
"264",6.0165882111,-1.2485536337,6.5001173742,-0.6491029263,1,0
"265",6.3349761963,-2.7616071701,7.2595851282,-0.9741872549,1,0
"266",6.7475185394,-2.4135808945,7.5250933163,-1.1074182987,1,0
"267",9.1860971451,-3.0657746792,9.8480536847,-0.9134339094,1,0
"268",9.9537010193,-3.6296520233,10.7813419946,-0.6949343085,1,0
"269",11.5704889297,-4.7942304611,13.1722358482,-0.2664625943,1,0
"270",12.6289377213,-1.6962726116,13.5906757255,0.0223825369,1,0
"271",13.6825971603,-1.4492862225,14.1812687436,-0.1012560502,1,0
"272",13.6294574738,-1.8027012348,14.278427947,-0.1108487546,1,0
"273",8.9588699341,-2.277962923,9.5519510563,0.222762242,1,0
"274",7.9311070442,-2.9069550037,8.5031189526,0.2504745722,1,0
"275",10.7765398026,-2.265389204,11.0139401277,0.0394360907,1,0
"276",12.1304740906,-2.1221370697,12.3245270366,-0.1694702506,1,0
"277",10.5654792786,-1.3358221054,10.6917658987,-0.4679086208,1,0
"278",9.0194940567,-2.3210732937,9.7997042086,-0.4892253578,1,0
"279",8.1209125519,-2.646197319,9.862916531,-0.0714121312,1,0
"280",8.1349830627,-2.6556274891,9.8884930716,0.2920425236,1,0
"281",8.7743034363,-2.5399181843,10.0829695539,0.3805081844,1,0
"282",8.2851209641,-0.8484356403,9.1115862353,0.3058986664,1,0
"283",7.7320213318,-0.518222332,8.6715714685,0.19505018,1,0
"284",7.911198616,-1.4275813103,9.1532664988,0.0927286074,1,1
"285",8.3331708908,-2.8193869591,9.6155337067,-0.0181198809,1,0
"286",9.3556947708,-2.7741811275,10.244871764,-0.1833264232,1,0
"287",10.3698358536,-1.8808387518,10.7275902241,-0.2131700665,1,0
"288",9.9911231995,-1.5753240585,10.2671603328,-0.1396266073,1,0
"289",7.8933854103,-1.6899856329,8.3673580092,0.0831361637,1,0
"290",8.5207309723,-2.8779153824,9.2840937615,0.1641407311,1,0
"291",9.0365581512,-2.845133543,9.7625198188,0.2824498117,1,0
"292",8.2653617859,-2.0942947865,8.7989254556,0.4103518426,1,0
"293",7.4534506798,-1.1711645126,7.8023058491,0.4188784957,1,0
"294",7.6606197357,-1.7371375561,8.1205497879,0.2973720431,1,0
"295",8.5551595688,-2.0354671478,9.3093580027,0.2216964364,1,0
"296",8.3300275803,-2.3328986168,9.4957478694,0.2739231586,1,0
"297",7.5682616234,-1.2169692516,8.5889763908,0.3559935391,1,0
"298",7.7475886345,-1.3991404772,8.3290914293,0.3485324085,1,0
"299",8.3671503067,-1.1002120972,8.8748908238,0.2749889493,1,0
"300",7.6908569336,-1.8148260117,8.8881686661,0.4455247521,1,1
"301",6.9949541092,-1.7610877752,8.8600109484,0.7098557353,1,0
"302",6.7695226669,-2.3334975243,8.8856992032,0.8516139388,1,0
"303",5.6839799881,-1.4539265633,7.2420184168,0.8707990646,1,0
"304",4.7054648399,-1.0038125515,5.8891233761,0.9720548391,1,0
"305",5.0972003937,-0.8738827705,5.9217564714,1.1724348068,1,0
"306",5.873486042,-1.7444723845,6.6330057392,1.4378310442,1,0
"307",10.0774936676,-4.9276027679,11.4000618649,1.7511911392,1,0
"308",18.5154476166,-10.6942110062,22.0107541243,1.591313839,1,0
"309",19.5417137146,-4.7162423134,22.269507611,0.2739231586,1,0
"310",15.3540210724,-2.5644671917,16.0246249484,1.1884223223,1,0
"311",9.6835126877,-9.228758812,13.4435873748,1.8428544998,1,0
"312",10.1340761185,-12.3478221893,15.9755262118,0.9891084433,1,0
"313",15.2675008774,-9.753118515,18.9040304095,0.8185723424,1,0
"314",13.4161510468,-4.4530897141,15.03912084,1.0999568701,1,0
"315",9.0626039505,-1.6908837557,9.5979352638,1.0711787939,1,0
"316",7.0867133141,-2.5801844597,7.5785292056,0.8409554362,1,0
"317",6.1493625641,-3.6134858131,7.1430996336,0.3794423938,1,0
"318",4.2607398033,-2.8696825504,5.1399344586,0.0383702926,5,4
"319",1.9937040806,-2.6289830208,3.3026227701,-0.2558043599,1,0
"320",0.6153703332,-2.3873853683,2.4914342047,-0.8281655908,1,0
"321",-0.4498146176,-3.5329532623,3.8757234944,-1.7874308825,1,0
"322",0.7020400763,-4.2278079987,5.1456969497,-2.8063836098,1,0
"323",3.0503568649,-1.6883391142,4.583637135,-3.5290296078,1,0
"324",7.5516462326,0.4727169871,7.8486449026,-3.4725394249,1,0
"325",12.0201539993,-0.8422984481,12.3976756717,-2.9151000977,1,0
"326",17.1924972534,-1.7709672451,17.5035588597,-2.2382855415,1,0
"327",11.4577732086,-2.0670516491,11.6951533264,-1.6222240925,1,0
"328",8.1915655136,-6.5644493103,10.5814263335,-0.4497889876,1,0
"329",8.9491405487,-8.0557975769,12.1609975767,0.0607530959,1,0
"330",12.6425600052,-9.350605011,15.7306622668,-0.0884656832,1,0
"331",19.3566970825,-2.6442513466,19.5550245926,-0.1502851099,1,0
"332",19.5435085297,-8.4175958633,21.2998360068,2.2734577656,1,0
"333",12.2273235321,7.8592567444,16.1922435512,2.6038711071,1,0
"334",2.9021649361,-1.7774038315,4.3328859881,0.4306033254,1,0
"335",7.4040532112,0.6849755645,8.1605339639,-0.5212011337,1,0
"336",16.0129508972,1.2018507719,16.0991628488,-1.9483742714,1,0
"337",9.7573099136,1.9034417868,9.9872183176,-0.7471610308,1,0
"338",8.9888076782,1.575024724,9.1404806012,-0.4615133107,1,0
"339",8.9774312973,0.430355072,9.0632614342,-0.250475347,1,0
"340",7.9114980698,-1.7901273966,8.3847262712,-0.5883492827,1,0
"341",8.2932043076,-5.0135245323,9.9546797899,-0.8207047582,1,0
"342",8.2834739685,-4.5373644829,9.4824377655,-0.8548118472,1,0
"343",7.2016739845,-0.3180885315,7.2219799132,-0.2973725498,1,0
"344",7.9442796707,0.9457333088,8.0648100153,0.3762447536,1,0
"345",10.9417963028,4.1418867111,12.2466687714,0.5968756676,1,1
"346",8.0141839981,-4.6322669983,11.1928616255,0.2600672543,1,0
"347",5.4338502884,-5.6821837425,10.7860807791,0.1481527239,1,0
"348",6.8413734436,-2.765499115,8.46872973,0.0149214249,1,0
"349",7.3968682289,-0.7291337848,7.6222248968,0.2334210128,1,0
"350",7.5059909821,-0.0471519455,7.5384952628,0.3666523099,1,0
"351",7.4333920479,0.4047583044,7.466251993,0.0415676832,1,0
"352",13.010643959,-2.8135492802,13.3146821862,-0.0639515519,1,0
"353",8.7955598831,-2.3358924389,9.2002018948,0.316557169,1,0
"354",5.1153125763,-0.0519419871,5.9076465389,0.5073441863,1,0
"355",6.4876589775,-1.4932947159,7.1020502273,0.3016352057,1,0
"356",11.9749479294,-4.0038738251,12.7443098947,0.3229524791,1,0
"357",11.2125835419,-1.1787986755,11.4438158951,0.2792524099,1,0
"358",7.7847118378,0.3954775929,8.1014603229,0.2749889493,1,0
"359",7.833509922,-1.1433224678,8.1195613558,0.0415676832,1,0
"360",8.8298377991,-2.4444167614,9.2338234984,-0.18652381,1,0
"361",11.6656913757,-2.6439518929,12.1133530512,-0.197182849,1,0
"362",14.6949415207,-2.9777576923,15.1805630135,-0.0202514753,1,0
"363",17.0396652222,-2.5649161339,17.4003361461,0.2440795153,1,0
"364",15.4760169983,-4.6310696602,16.2495361262,0.7386335731,1,0
"365",14.3659257889,-7.9284129143,16.4276023626,1.7821007967,1,0
"366",11.8769016266,-5.3943324089,13.0695997592,1.7149522305,1,0
"367",12.7362651825,-1.9796333313,12.9100492857,1.5028481483,1,0
"368",13.6260147095,-2.7855575085,13.9510393966,2.0762755871,1,0
"369",12.3946752548,-2.0947439671,12.7660397634,2.4429278374,1,0
"370",10.381811142,-4.0326142311,11.363982178,2.1828606129,1,0
"371",9.8766117096,-3.9381606579,10.6657275343,1.6009066105,1,0
"372",10.3202886581,-4.2522072792,11.2084509029,1.2800856829,1,0
"373",9.7769184113,-3.2690520287,10.3704055357,0.9017085433,1,0
"374",8.626411438,-3.5185830593,9.3291763403,0.7492920756,1,0
"375",5.912405014,-2.9913794994,6.6519406119,0.4977514744,1,0
"376",4.7611489296,-3.6115398407,5.9962512067,0.0564899072,1,1
"377",4.7439351082,-3.4390983582,5.9204222173,-0.3186893165,1,0
"378",4.872218132,-3.2124695778,5.9084058591,-0.5467815995,1,0
"379",5.3187394142,-1.2734019756,5.4723873576,-1.1511180401,1,0
"380",6.7424292564,-1.272354126,6.8776650552,-1.4527539015,1,0
"381",7.5013508797,-1.2864248753,7.7526176708,-1.757586956,1,0
"382",6.7463207245,-1.6203804016,7.4921437124,-2.0048642159,1,0
"383",5.9686880112,-2.0320243835,6.6689672633,-2.1945853233,1,0
"384",6.7115931511,-2.5658142567,7.3703386479,-2.4141507149,1,0
"385",8.6813468933,-3.9474413395,9.5695997821,-2.4482576847,1,0
"386",8.6813468933,-3.9474413395,9.5695997821,-2.4482576847,1,0
"387",11.1307039261,-4.8422803879,12.2229858237,-1.6232899427,1,0
"388",11.8089427948,-5.4817504883,13.2615145189,-0.7077249289,1,0
"389",8.9206991196,-5.0807347298,10.5110459128,-0.0181198809,1,0
"390",8.1758480072,-4.2408313751,9.4291640091,0.1907870024,1,0
"391",8.6502113342,-2.3709197044,9.2350057783,0.5361220241,5,4
"392",12.3759641647,-3.7429664135,13.2798448246,0.8494823575,1,0
"393",19.4263019562,-5.7284374237,20.9790268571,-0.4700402021,1,0
"394",18.6070556641,0.1675016731,18.611367376,-0.7045270205,1,0
"395",19.5394668579,-2.3056554794,21.9863974394,1.187356472,1,0
"396",18.1594867706,1.8558408022,22.0583782723,0.207840547,1,0
"397",6.7112936974,-0.1618135124,8.4952208603,-0.050095126,1,0
"398",4.2668771744,-2.8217821121,5.5873919107,-0.6139297485,1,0
"399",9.8831977844,-0.4417314231,9.8947498465,-1.2193328142,1,0
"400",11.6252746582,5.8040304184,13.4411411764,-0.880392313,1,0
"401",6.2351341248,4.852159977,7.9084226013,-0.3762455285,1,0
"402",9.2833948135,1.0829979181,9.3554328679,-0.3122942448,1,0
"403",11.106004715,-5.7823257446,13.0452632799,-0.1300338954,1,0
"404",11.4383134842,-5.4706735611,13.7821540104,-0.4711059928,1,0
"405",9.4826307297,-1.1940668821,10.4042919253,-0.8729314804,1,0
"406",8.2896118164,2.6500890255,8.8313885353,-0.7162516117,1,0
"407",9.2534570694,3.3429982662,9.9665482819,-0.3122942448,1,0
"408",9.2733659744,-0.2145039439,9.7024645005,-0.1705365926,1,0
"409",10.9033260345,-2.2326073647,11.3144280071,0.0405018851,1,0
"410",10.8959913254,-1.6567547321,11.0214561666,0.1012555137,1,0
"411",9.1904382706,-2.2342538834,9.4971489895,0.086333558,1,0
"412",7.2874455452,-1.2430151701,7.9602407463,0.4274053872,1,0
"413",5.8276810646,0.7960445881,6.977948742,0.8739964962,1,1
"414",6.5298709869,-0.5653743148,7.5624255973,0.7290411592,1,0
"415",6.5728316307,-0.8313711286,6.9074819165,0.5158711076,1,0
"416",5.3072137833,0.3888913095,5.460062156,0.2760547698,1,0
"417",5.4649853706,0.8487350345,5.9809232074,-0.1353634149,1,0
"418",9.3730583191,-1.8898200989,10.3445211163,-0.6267203689,1,0
"419",12.9170885086,-2.3400838375,14.0323684349,-0.2632651925,1,0
"420",10.5603895187,-1.843865633,12.0473601049,0.1534822285,1,0
"421",7.9364957809,-2.3447241783,8.554596978,0.3154913783,1,0
"422",9.9881296158,-0.3731739819,10.214522581,0.4114179015,1,0
"423",13.9120693207,-2.5372238159,14.4871890597,0.9208942056,1,0
"424",13.9768848419,-1.5491285324,14.6772960524,1.4410289526,1,0
"425",14.8109502792,-3.3624577522,15.6303677303,2.200979948,1,0
"426",18.5865497589,-2.1815633774,19.2284782289,2.3661866188,1,0
"427",17.9544143677,0.1508862376,18.6934727339,2.7498924732,1,0
"428",15.5393362045,-1.5438895226,15.9521441032,2.9875771999,1,0
"429",14.4213104248,-1.5813117027,14.6799686683,3.0024988651,1,0
"430",10.9542207718,-3.5139427185,11.8487316113,2.5601713657,1,0
"431",10.9715843201,-3.8279895782,12.2044853595,1.4719384909,1,0
"432",11.0346031189,-0.4348457456,11.6926786812,0.7524897456,1,0
"433",9.386680603,0.5069956779,10.1574743853,0.6586948037,1,0
"434",7.0410580635,-1.089733839,8.1401071805,0.6000733376,1,0
"435",5.3742742538,-3.3862581253,7.5862180931,0.3282814622,1,0
"436",4.885989666,-4.5162582397,7.2575528496,-0.0778071806,1,0
"437",5.2852091789,-3.5019676685,6.361149121,-0.6054030657,1,0
"438",4.9765510559,-2.0927979946,5.435521259,-1.1074182987,1,0
"439",4.7373485565,-0.2341131568,4.8415360836,-1.4367660284,1,0
"440",5.0118775368,-0.3724255264,5.1303996972,-1.6062361002,1,0
"441",4.9922685623,-1.5416440964,5.2628947348,-1.7362699509,1,0
"442",5.231171608,-3.1488518715,6.10939061,-2.0059299469,1,0
"443",6.5960335732,-3.5592985153,7.4956227563,-2.3448700905,1,0
"444",10.1691036224,-2.2224283218,10.644953045,-2.3779118061,1,0
"445",12.3663835526,-1.8148260117,13.043096267,-2.0570907593,1,0
"446",12.6723480225,-4.1968226433,14.2869202023,-0.6128639579,1,1
"447",9.1757688522,-4.9841852188,10.9962175975,-0.3176234961,1,0
"448",9.7489271164,-5.4124445915,11.4424444465,-0.3474671543,1,0
"449",14.3750572205,-5.2179989815,15.3057188628,-0.8537460566,1,0
"450",18.076259613,1.6066089869,18.1901190796,-0.8420220017,1,0
"451",19.2590999603,2.3117926121,19.4594484891,-0.7524905205,1,0
"452",8.0517559052,-1.5182926655,8.4547043205,-0.836692512,1,0
"453",8.4886980057,-4.1120986938,10.8308503656,-0.283516407,1,0
"454",8.07675457,-2.1384530067,10.5494517252,0.1129798144,1,0
"455",9.6890516281,2.2611978054,10.3942134311,0.4007591307,1,0
"456",9.3277025223,3.0551466942,9.8277519895,-0.2515411675,1,0
"457",10.0387239456,1.9311342239,10.3084131639,-1.078640461,1,0
"458",11.4634618759,0.1763333082,12.3957801283,-1.4239759445,1,0
"459",10.775642395,-2.3797512054,12.2150992088,-1.1351306438,1,0
"460",10.1191072464,-2.4870781898,11.1677996692,-0.7109223604,1,0
"461",9.1715774536,-2.0971388817,9.6694206612,-0.5148057938,1,0
"462",8.8727989197,-0.4668791294,8.9238009804,-0.5020157099,1,0
"463",9.2980642319,0.3653901815,9.3065006466,-0.5275961757,1,0
"464",8.8569316864,0.3067121804,8.8636023176,-0.2995041609,1,0
"465",7.2570590973,-0.9613009691,7.3532982621,0.1289675683,1,0
"466",6.7253646851,-2.3589446545,7.2445645181,0.8750622869,1,0
"467",7.4221653938,-2.215842247,8.4414071538,1.8588420153,1,0
"468",9.0109615326,-2.5632696152,10.2676110052,2.2723920345,1,0
"469",15.4167404175,-2.651286602,16.0683602059,2.1700701714,1,0
"470",19.1594085693,-1.8154247999,19.6808567041,2.5686981678,1,0
"471",17.2953338623,-3.3075220585,17.8372215714,3.6057701111,1,0
"472",12.9661865234,-4.0167469978,13.580654949,3.6675896645,1,0
"473",8.184679985,-5.5565948486,9.9927116537,2.4280059338,1,0
"474",3.68024683,-5.6003041267,6.7232117498,1.1148785353,1,0
"475",3.8218524456,-3.5093023777,5.4444784349,0.2973720431,5,4
"476",5.5703663826,-2.5216562748,7.1450899885,0.1140456125,1,0
"477",5.1611175537,-3.073558569,7.5305793432,0.1747989804,1,0
"478",4.4879670143,-3.9104681015,6.7619359485,-0.1556143612,1,0
"479",4.2694215775,-3.7808377743,5.808565182,-0.9283555746,1,0
"480",4.2921743393,-2.7164011002,5.0913642023,-1.5156390667,1,0
"481",4.2484650612,-1.7896783352,4.6132568565,-1.7714431286,1,0
"482",4.3034009933,-2.2552101612,4.860038295,-1.6414092779,1,0
"483",5.4325032234,-3.7504508495,6.6070549683,-1.2630326748,1,0
"484",7.2591543198,-4.8011159897,8.7654618029,-0.9891089201,1,0
"485",9.8043117523,-5.0409173965,11.1625784227,-1.0349406004,1,0
"486",11.0944786072,-4.4429111481,12.0544197809,-0.9891089201,1,0
"487",10.6106853485,-4.0043230057,11.540897128,-0.8036509156,1,0
"488",10.5641317368,-5.0671129227,11.9819027814,-0.8175073862,1,0
"489",10.8088731766,-4.8713202477,12.2093991453,-0.8377583027,1,0
"490",9.8263158798,-5.6341338158,11.881032596,-0.805783093,1,0
"491",9.6671972275,-5.9814114571,11.7316283403,-0.9326190352,1,0
"492",9.8111972809,-5.9372534752,11.649487372,-1.0232163668,1,0
"493",11.5350131989,-6.2294459343,13.1421280771,-0.8388240933,1,0
"494",13.5972747803,-4.9347882271,14.4750741275,-0.3261504173,1,0
"495",15.2203493118,-2.3879842758,15.4115127334,-0.2366189361,1,0
"496",19.1939849854,2.6259891987,19.3740265632,-0.4391307533,1,0
"497",19.5445575714,-2.7126588821,19.8695506177,0.4455247521,1,1
"498",7.3524107933,-3.0969099998,8.1082958172,1.5582722425,1,0
"499",6.0520648956,0.5562433004,7.0137961538,0.9262232184,1,0
"500",8.9620132446,-0.1868115216,9.9841457573,0.3016352057,1,0
"501",11.2585372925,0.4004173279,12.1748162414,-0.553176403,1,0
"502",10.9278755188,0.5322930813,11.6054325931,-1.1180770397,1,0
"503",10.5481147766,-0.0401165783,10.6367420612,-1.3440371752,1,0
"504",9.7385988235,0.9180409312,9.9154191288,-1.1010235548,1,0
"505",9.3616819382,-1.2766951323,9.7375267645,-0.6917369366,1,0
"506",9.3104887009,-2.5274939537,9.8306669941,-0.5904814005,1,0
"507",9.0111112595,-2.4286994934,9.460463319,-0.5435836911,1,0
"508",8.633895874,-2.2662873268,8.9265761408,-0.4561843276,1,0
"509",8.0698690414,-1.6637901068,8.2423860499,-0.1875896007,1,0
"510",7.2652916908,-1.9787352085,7.6006200036,0.1801284999,1,0
"511",8.3358650208,-3.0096414089,9.3435711796,0.3144255877,1,0
"512",10.0435142517,-3.2507898808,11.0070992882,0.4039570689,1,0
"513",10.6458616257,-1.1591894627,11.1545268633,0.5467807651,1,0
"514",6.9073858261,-0.1839674413,7.4258585629,0.5958098769,1,0
"515",3.9396574497,-0.3670367301,4.4020406759,0.4977514744,1,0
"516",3.9836659431,-0.3487747312,4.3269733315,0.4263395965,1,0
"517",10.9774227142,-1.5414944887,11.4003242045,0.2206306458,1,0
"518",12.4669752121,-0.6694079638,13.1690596969,0.0927286074,1,0
"519",8.6289558411,-0.3688330054,9.3890661891,0.1300333738,1,0
"520",8.3734369278,-0.4025129676,8.8479546031,0.2536719441,1,0
"521",9.9900751114,-3.0255084038,10.4874457739,1.1447228193,1,0
"522",17.2305183411,-5.2084188461,18.03087765,1.3355097771,1,0
"523",19.3986110687,-6.3279409409,20.4257330661,1.2683610916,1,0
"524",15.5935230255,-4.4861707687,16.2600282683,1.9579662085,1,0
"525",13.2622709274,-4.6559181213,14.238041729,2.4173474312,1,0
"526",11.7522115707,-5.2317705154,13.2802584648,2.2819843292,1,0
"527",9.4993963242,-4.3914179802,10.9576147349,1.827932477,1,0
"528",9.2154359818,-3.5819013119,10.1794000733,1.6136966944,1,0
"529",8.2860193253,-3.3687446117,9.2112133189,1.3770779371,1,0
"530",7.755671978,-4.3617796898,9.1283082583,1.1255371571,1,0
"531",7.3634877205,-4.4741959572,8.7284647099,0.3400060534,1,0
"532",5.3808603287,-3.1395711899,6.2987824005,0.0873993561,1,1
"533",3.2135174274,-2.6023383141,4.1577060988,-0.114046149,1,0
"534",2.4469614029,-1.8902691603,3.1666829126,-0.3090968728,1,0
"535",2.2333557606,-1.9691550732,3.0370968147,-0.4540521801,1,0
"536",1.6636404991,-2.2745201588,2.8349871764,-0.9187628627,1,0
"537",2.8380980492,-2.7681934834,3.9645569045,-1.1745669842,1,0
"538",3.8574783802,-3.1235544682,4.9732304172,-1.3397735357,1,0
"539",7.1296739578,-3.1015503407,7.7960781998,-1.7437311411,1,0
"540",13.7369337082,-1.3214520216,13.9268572077,-1.8865548372,1,0
"541",13.1976051331,-3.71347785,14.2932276341,-1.5145732164,1,0
"542",13.0134887695,-4.9732580185,14.5356995036,-1.4847294092,1,0
"543",11.4050827026,-4.3224115372,12.4671118862,-1.4325028658,1,0
"544",11.6832046509,-5.9597067833,13.1587201697,-0.8686682582,1,0
"545",11.0428361893,-6.8228120804,13.0951937879,-0.7865979075,1,0
"546",10.3358564377,-5.7234978676,11.9493298458,-0.7333053946,1,0
"547",10.3822603226,-4.2935214043,11.2624182085,-0.5979419947,1,0
"548",12.885055542,-3.3808693886,13.3435172925,-0.4902911484,1,0
"549",15.3210897446,-0.8749305606,15.3723896571,-0.367718637,5,4
"550",17.1019363403,-2.9389884472,17.4397260004,0.1790626943,1,0
"551",15.0661697388,-6.9684591293,17.0865447709,1.6168940067,1,0
"552",7.4315958023,-1.4852114916,10.0638191827,0.8239018917,1,0
"553",8.2005472183,0.7500901818,8.986109717,0.5297272205,1,0
"554",9.1434364319,-0.4004173279,9.5915954357,0.2835156024,1,0
"555",10.3502264023,-1.5325131416,10.7596363968,-0.2046434283,1,0
"556",11.0989694595,0.3864962757,11.1386080036,-0.3240188062,1,0
"557",9.1531658173,0.5545967221,9.170994887,-0.0053295181,1,0
"558",8.563542366,-2.4891736507,9.2373649288,-0.0532925166,1,0
"559",8.6415300369,-3.7360808849,10.5551569769,-0.5862177014,1,0
"560",8.8642663956,-3.2477960587,10.1270757361,-0.7077249289,1,0
"561",7.9586501122,-1.5925383568,8.7197133834,-0.405023396,1,0
"562",6.406826973,-2.0686981678,7.106649761,-0.2600677907,1,0
"563",5.8318724632,-1.1141331196,5.9434319027,0.1257701814,1,0
"564",5.2030301094,0.024848327,5.2118854261,0.1470869184,1,0
"565",6.6180377007,-2.674488306,7.1600680765,0.1204406619,1,0
"566",9.4571838379,-2.0968396664,10.0280277389,0.3762447536,1,0
"567",8.1851291656,0.1830693036,8.3119951826,0.4007591307,1,0
"568",3.7826340199,0.0519419871,4.202346446,0.1417576671,1,1
"569",6.4496378899,-2.5866210461,7.0112443259,-0.3378747106,1,0
"570",8.2105760574,-4.1342525482,9.2054384494,-0.5286619663,1,0
"571",11.8830394745,-5.0362768173,12.9442486691,-0.3655867577,1,0
"572",7.7929444313,-0.1055305451,9.041760094,-0.0714121312,1,0
"573",7.0871620178,-1.2621753216,8.8885489187,-0.2909772396,1,0
"574",6.9994444847,-2.0865111351,9.0395144759,-0.2643309832,1,0
"575",8.5568056107,-4.6276268959,11.5199193517,0.3805081844,1,0
"576",13.2275428772,-5.645210743,15.5190784802,1.2939414978,1,0
"577",17.0419120789,-4.6884002686,18.6821967418,1.5955770016,1,0
"578",19.5409641266,-1.5685881376,20.0438925709,1.622223258,1,0
"579",19.5503940582,-1.6928297281,19.9654440852,1.7948909998,1,0
"580",19.4538459778,-2.2546114922,19.7508428852,1.9664930105,1,0
"581",16.5811691284,-3.8002972603,17.157741461,1.0669156313,1,0
"582",18.8884716034,-6.0568547249,20.0268092716,0.6107318401,1,0
"583",18.8880214691,-4.7695317268,19.7286207156,0.7418314815,1,0
"584",14.3719139099,0.9617500305,15.057290597,0.6427070498,1,0
"585",12.3517141342,0.596359849,12.9311283657,0.5926124454,1,0
"586",8.8290901184,-1.2925621271,8.9524573165,0.5787560344,1,0
"587",6.8105373383,-2.0772304535,7.2448001499,0.2302230895,1,0
"588",4.7557601929,-1.5423926115,5.0567832034,-0.2153021991,1,0
"589",4.2257127762,-1.4780263901,4.5088970394,-0.5190695524,1,0
"590",1.7181271315,-1.8059943914,2.6805189083,-1.360024929,1,0
"591",1.2439132929,-0.928668797,1.5630232126,-1.8844230175,1,0
"592",0.3438349962,-0.8259823322,0.965410568,-2.1061198711,1,0
"593",0.827329576,0.5387297273,1.5933698313,-2.7029957771,1,0
"594",1.9296373129,0.2700384557,2.3952653516,-2.8053174019,1,0
"595",3.0008096695,-0.6288422942,3.2654300613,-2.5793573856,1,0
"596",7.5739498138,-3.1978001595,8.311089188,-1.8929498196,1,1
"597",18.0765590668,-8.3544273376,20.1427924127,-0.563835144,1,0
"598",19.5408153534,-7.408094883,21.3085984046,0.0554241091,1,0
"599",11.0160417557,-6.03170681,12.5780910326,-0.0298441816,1,0
"600",4.1146435738,-3.6812946796,5.9689583467,-0.082070902,1,0
"601",5.1328263283,-3.3545241356,6.1326408216,-0.4956206679,1,0
"602",19.1481819153,4.5343708992,20.1774000288,-1.3035347462,1,0
"603",19.5430603027,-8.0313987732,22.805305747,1.7053594589,1,0
"604",12.0197048187,4.306245327,16.0275755718,0.8910502791,1,0
"605",0.3366499245,1.4064751863,2.2829685792,0.3773108125,1,0
"606",2.5881180763,2.8786637783,3.896482417,0.3400060534,1,0
"607",8.961564064,5.3971767426,10.772375551,-0.6768149734,1,0
"608",8.3735866547,2.5713529587,8.9852857045,-1.0711792707,1,0
"609",8.5153427124,1.3296848536,8.6586972299,-1.3141936064,1,0
"610",14.6371622086,-2.1477336884,15.1318706954,-1.2640984058,1,0
"611",13.2452068329,-5.3953800201,15.0952759281,-1.0765088797,1,0
"612",9.5498409271,-3.6842885017,10.8505089003,-0.9901747704,1,0
"613",7.9339513779,-1.0594967604,8.2586148683,-0.7546221614,1,0
"614",7.193441391,0.8044272065,7.2399348405,-0.6693538427,1,0
"615",6.6039671898,1.3380675316,6.7392837796,-0.640576005,1,0
"616",7.7299256325,-0.2954855263,8.1439860429,-0.8302971721,1,0
"617",9.8195800781,-2.4827370644,10.8046048838,-1.0679819584,1,0
"618",9.7703323364,-1.5405963659,10.2990527708,-1.1756327152,1,0
"619",7.842192173,0.2800675929,8.1798325374,-1.0285458565,1,0
"620",5.8538765907,0.2805166543,6.0859735412,-0.6117981672,1,0
"621",8.7436180115,-0.8530760407,9.133953144,-0.6149955392,1,0
"622",13.2425117493,-2.5110282898,13.8988760953,-0.5254642963,1,0
"623",9.437125206,-1.431622982,9.7141973988,-0.1332312971,1,0
"624",6.1008629799,-2.0739371777,6.5141228058,0.3176229596,1,0
"625",6.6223788261,-2.6155109406,7.4747762589,1.1234054565,1,0
"626",9.6589641571,1.0794053078,10.1101036222,0.9283547997,1,0
"627",11.3616733551,0.4408332705,11.7928497116,0.505212605,1,0
"628",8.5701284409,1.6911832094,9.1846940304,-0.0554246418,1,0
"629",6.7716183662,2.1989274025,8.2828892651,-0.5766252279,1,0
"630",7.0744385719,0.1008901969,8.7489305115,-0.7386344075,1,0
"631",10.4207296371,-2.0607645512,12.1362573335,-0.18652381,1,0
"632",11.5748300552,-2.1680915356,12.2873029474,0.7141188979,1,0
"633",13.289065361,-2.6614654064,13.8449695472,1.2566367388,1,0
"634",18.6064567566,-1.2831317186,18.8336496692,2.328881979,1,0
"635",19.4683647156,1.1097922325,19.7380365764,2.3160917759,1,0
"636",18.5310153961,0.6283932328,18.7698308216,2.2521407604,1,0
"637",15.3775224686,1.8607804775,15.9742558313,1.8961470127,1,0
"638",14.8970212936,-0.6210585237,15.7845839803,1.5049797297,1,0
"639",15.2636089325,-2.7170000076,15.9180281824,1.1372616291,1,0
"640",12.7828178406,0.6282435656,12.8892482693,0.4689736068,1,0
"641",11.6245269775,2.2532644272,11.9093638276,0.5030809641,1,0
"642",10.5886802673,1.5096107721,10.7008508647,0.5307930112,1,0
"643",7.0207004547,-1.2308903933,7.4188776328,0.8281650543,1,0
"644",4.6713356972,-1.4814692736,5.3792230739,0.3474666178,1,0
"645",3.8733453751,-2.3523583412,4.7451293468,-0.158811748,1,0
"646",2.7834618092,-0.5936654806,2.8615355953,-1.0040311813,1,0
"647",2.649939537,-0.9755213857,2.8334590286,-0.9336848259,1,0
"648",2.6771826744,-1.7721648216,3.2161935079,-0.9166312814,1,0
"649",3.4289195538,-3.6778519154,5.0312026122,-1.1329987049,5,4
"650",5.7829241753,-3.1820828915,6.6024277701,-1.4825974703,1,0
"651",7.5432639122,-2.3986120224,7.9260421116,-1.7320065498,1,0
"652",11.7692756653,1.1677217484,11.82717291,-1.7010971308,1,0
"653",10.7964487076,1.3986914158,10.9425019952,-1.2321226597,1,0
"654",9.1250247955,-2.0103194714,9.4642456218,-0.8068488836,1,0
"655",9.3106384277,-5.5414762497,11.0310812443,-0.5659667253,1,0
"656",10.0409698486,-7.6438546181,13.0826360108,-0.563835144,1,0
"657",11.1179800034,-6.8394274712,14.0098972758,-0.4338012338,1,0
"658",9.5655584335,-5.2657499313,11.4864368897,-0.2355531305,1,0
"659",8.4765729904,-3.0642778873,9.1240192043,-0.3634551764,1,0
"660",13.5510206223,-1.4010864496,13.6380217035,-1.0839699507,1,0
"661",19.5053386688,4.6418471336,20.064244655,-1.0754430294,1,0
"662",16.789686203,-2.0375628471,16.9477688111,0.0842019618,1,0
"663",10.9847574234,-10.1987419128,15.359949204,1.692569375,1,0
"664",7.4052505493,-9.6228895187,13.3022490242,0.6725512147,1,0
"665",8.0159807205,0.9678872824,8.9411954909,-0.2931088507,1,0
"666",11.7043104172,5.2638039589,12.9964729806,-0.5862177014,1,0
"667",8.4759740829,5.7284374237,10.3601154966,-0.9859115481,1,0
"668",8.582403183,2.867736578,9.5307076722,-1.0615868568,1,0
"669",10.113120079,-2.6729915142,11.3098320107,-0.718383193,1,0
"670",11.4029874802,-2.8696825504,12.352442672,-0.5563740134,1,0
"671",9.7221326828,0.2167492658,10.009471985,-0.3389405012,1,0
"672",9.0411987305,1.2792397738,9.1450005386,-0.4401965737,1,0
"673",9.1944799423,0.6929090619,9.2272372213,-0.7173174024,1,0
"674",8.4722318649,0.0058378601,8.4754058471,-0.9475412369,1,0
"675",8.9208488464,-0.8638536334,8.9948283277,-1.0765088797,1,0
"676",9.9963626862,-1.7570462227,10.6403686672,-0.9208949804,1,0
"677",10.0724039078,-2.1445903778,11.1623306586,-0.5169374347,1,0
"678",9.5426559448,-2.4489073753,10.58638325,-0.2536727488,1,0
"679",9.003027916,-1.879940629,9.6302388784,-0.0756755844,1,0
"680",9.0624542236,-1.4650034904,9.4223980861,-0.0426342785,1,0
"681",8.9236927032,-0.7102729678,9.1590109559,-0.0927294046,1,1
"682",7.9344005585,-0.2670446634,8.1682386896,0.0831361637,1,0
"683",7.4223151207,-0.0562829599,7.5652307041,0.306964457,1,0
"684",6.854845047,-1.8592835665,7.3801207787,0.4146153033,1,0
"685",7.8556642532,-1.9193087816,8.2647850028,0.4561835229,1,0
"686",8.85962677,-0.5538482666,9.0578778285,0.4689736068,1,0
"687",9.4148216248,-0.5884263515,9.6936905309,0.4732367992,1,0
"688",9.6839618683,0.3370989859,10.2442968366,0.3975617588,1,0
"689",9.1877441406,0.0553848259,9.6181203853,0.2899109125,1,0
"690",8.2682065964,-0.236957252,8.9826144675,0.2014452368,1,0
"691",8.153544426,0.3528163135,9.3849101267,-0.0351731665,1,0
"692",7.7574682236,1.1297007799,9.2595223566,-0.2089068741,1,0
"693",8.7160749435,-0.0149688721,9.2945399838,-0.2430142462,1,0
"694",12.5322389603,-3.3426988125,13.0996884374,0.0255799294,1,0
"695",16.0791130066,-2.5162672997,16.2865714897,0.4220764041,1,0
"696",18.6259174347,-0.3442840576,18.6836725609,0.6054022908,1,0
"697",17.0820274353,-0.4528083801,17.2555506525,0.9528694749,1,0
"698",16.2187728882,-3.6756064892,16.6320088462,1.2513078451,1,0
"699",13.9147644043,-3.1533424854,14.3370885735,1.3131266832,1,0
"700",10.8292303085,-0.4808001816,10.841040193,1.1926857233,1,0
"701",9.6279783249,-1.1871812344,9.7312641592,1.3365756273,1,0
"702",10.0300426483,-0.9304651022,10.1412234842,1.3621560335,1,0
"703",11.0862464905,-0.5526507497,11.3459463804,1.3227196932,1,0
"704",11.2296476364,-0.6191125512,11.6947808256,1.1543152332,1,0
"705",9.9587907791,-2.7942392826,10.5749604353,0.9017085433,1,0
"706",8.0716648102,-2.8880941868,8.6730234846,0.6896048188,1,0
"707",5.7037391663,-1.6334033012,5.9550976626,0.1108482182,1,0
"708",5.2527270317,-1.7292040586,5.5471758694,0.0405018851,1,1
"709",4.4765911102,-3.3431479931,5.5898478446,-0.1833264232,1,0
"710",3.8234989643,-2.9717702866,4.8441449404,-0.7119881511,1,0
"711",4.0330634117,-1.8944604397,4.4590119651,-0.9688580036,1,0
"712",5.0316367149,-1.7302519083,5.3585051339,-1.0509283543,1,0
"713",7.271279335,-2.3926246166,8.2088860908,-1.2438474894,1,0
"714",9.2744140625,-3.219055891,10.8062489692,-1.3930660486,1,0
"715",10.379565239,-4.2596917152,11.8327850071,-1.474070549,1,0
"716",10.9102125168,-2.7916946411,11.6566302772,-1.5902483463,1,0
"717",11.0338554382,-0.3206332326,11.3493443506,-1.11914289,1,0
"718",9.7391967773,-1.9943028688,10.1154261407,-0.4892253578,1,0
"719",8.9985370636,-3.2247440815,9.5851451543,-0.382640332,1,0
"720",9.2591457367,-3.9658529758,10.0731179271,-0.3847724497,1,0
"721",8.1638727188,-4.7559099197,9.4493818454,-0.5169374347,1,0
"722",8.7814884186,-3.8773870468,9.6204276185,-0.559571445,1,0
"723",10.6394252777,-4.3200163841,11.5431749664,-0.5382546782,1,0
"724",11.4175071716,-3.9579193592,12.0906319159,-0.5478473902,1,0
"725",11.0051145554,-3.1364278793,11.519441839,-0.596876204,1,0
"726",14.0138578415,-2.1152513027,14.3978376672,-0.5894150734,1,0
"727",15.4923334122,-2.3415806293,15.8295700152,-0.4529863894,1,0
"728",14.4913654327,-1.873953104,14.7477792911,-0.3687844276,1,0
"729",12.3421344757,0.2968327403,12.5265879342,-0.4849621654,1,0
"730",12.6629171371,-0.1067280546,12.7010587957,-0.721580565,1,0
"731",9.8194303513,-0.2832110524,9.8682892608,-0.5755594373,1,0
"732",8.9150114059,0.5298980474,8.9982416767,-0.2067752779,1,0
"733",8.5782117844,0.5935157537,8.7207479615,0.1598770171,1,0
"734",8.3170051575,1.2142748833,8.5149861787,0.1769305766,1,0
"735",9.2426795959,1.5072157383,9.4661349976,-0.0277125873,1,0
"736",10.1367702484,1.6958235502,10.5356186315,-0.4775010645,1,0
"737",10.2738857269,3.5515146255,11.6066414861,-0.8739972711,1,0
"738",9.7728767395,1.2064911127,10.479425527,-0.8004535437,1,0
"739",10.5847892761,-0.7318281531,10.9568491657,-0.5851519108,1,0
"740",10.7404651642,-0.8442443609,10.9459352936,-0.5382546782,1,0
"741",9.5080776215,-0.1730401665,9.7521430375,-0.640576005,1,0
"742",9.2646837234,0.0285905451,9.4703766587,-0.5936787724,1,0
"743",10.4039649963,0.4706213474,10.6831659821,-0.4018254578,1,0
"744",10.8703947067,0.8131091595,11.1679789972,-0.2728579044,1,0
"745",10.1457519531,0.4828958213,10.3063324952,-0.3218872249,1,0
"746",8.6247644424,0.3155438304,8.8598124616,-0.3570598662,1,0
"747",7.7883043289,0.4918771386,8.0865111511,-0.3794429302,1,0
"748",8.1420183182,0.3805087209,8.5310850023,-0.3698502183,1,0
"749",9.9860343933,-0.4230203331,10.401110047,-0.4433939457,1,0
"750",9.8831977844,0.2174977064,10.1444530345,-0.5691641569,1,0
"751",7.0235443115,1.258882165,7.5042298151,-0.5744936466,1,0
"752",6.7964668274,0.9776170254,7.1327694477,-0.3964964747,1,0
"753",8.6559000015,0.6577322483,8.8745796212,0.1204406619,1,0
"754",13.2133226395,1.3266911507,13.635304885,0.4071544409,1,0
"755",12.723241806,0.7719447613,12.7631062482,0.3783766031,5,4
"756",13.486205101,0.230670318,13.4894198178,0.3975617588,1,0
"757",13.3803749084,-1.601369977,13.8431999838,1.1074177027,1,0
"758",12.395573616,-1.1012599468,13.4623566431,1.9302538633,1,0
"759",12.0842208862,-1.3780343533,13.3567157441,2.7637486458,1,0
"760",11.5234870911,-2.0254380703,12.1810573666,3.4203121662,1,0
"761",11.1534566879,-2.7608587742,11.4999237058,3.9095375538,1,0
"762",11.1669282913,-2.8716285229,11.5544425314,3.9457762241,1,0
"763",10.7874670029,1.8345849514,11.1050376527,3.0238161087,1,0
"764",9.700428009,-1.2120295763,9.7788984013,2.3704500198,1,0
"765",10.4353990555,-2.6779313087,11.5400780274,2.0741438866,1,0
"766",11.4362182617,-2.7566673756,12.5202405708,1.5412187576,1,0
"767",7.4000115395,-2.7134075165,9.7037146937,0.8441528082,1,0
"768",5.3602032661,-2.5104296207,7.8890154415,0.350664556,1,0
"769",3.020868063,-2.1531226635,3.8878955995,-0.1151119396,1,0
"770",1.692979455,-3.6170783043,4.0962623866,-0.5286619663,1,0
"771",1.5576608181,-3.8838236332,4.6864213847,-0.7823342085,1,0
"772",2.4713606834,-3.4417927265,4.6704258537,-1.1255376339,1,0
"773",3.1102323532,-2.4465124607,3.9999935627,-1.5699974298,1,0
"774",5.0392708778,-2.3173310757,5.5739752884,-1.8663035631,1,0
"775",7.5031471252,-1.3365706205,7.7674214609,-1.9611643553,1,0
"776",12.3446788788,-0.7062313557,12.446196463,-1.8034183979,1,0
"777",16.5461425781,-3.4640963078,17.1134029577,-1.6669896841,1,0
"778",14.6265335083,-5.1892590523,15.7232433897,-1.3642882109,1,0
"779",10.3990249634,-6.1167302132,12.0672737123,-0.3282819986,1,0
"780",7.3675289154,-7.5742492676,10.5670560683,0.2568693459,1,0
"781",10.6117324829,-6.4863114357,12.5033930942,-0.4348670542,1,0
"782",19.4445648193,6.8552942276,20.7337862577,-0.7631490231,1,0
"783",19.545753479,6.8329906464,20.7733824099,-0.3901014328,1,0
"784",17.578994751,0.9602531195,17.7544335215,-0.0255804621,1,0
"785",9.3305473328,-2.0074753761,10.8784202371,0.2760547698,1,0
"786",5.6441631317,-2.5285418034,6.6964712843,0.5158711076,1,0
"787",7.2072124481,3.198997736,7.9331850353,-0.0426342785,1,0
"788",9.3033037186,2.7092161179,9.6914936325,-0.4956206679,1,0
"789",9.8688278198,1.3069322109,9.9752015669,-0.7802026272,1,0
"790",12.7793750763,1.8124309778,13.1712025101,-1.355761528,1,0
"791",12.2084627151,-2.7168502808,13.2050421593,-0.4593816996,1,0
"792",11.2305459976,-1.7709672451,11.869794809,-0.1875896007,1,0
"793",8.7901706696,-0.3222798109,9.0521479971,0.175864771,1,0
"794",8.7270021439,-0.0800834671,8.823821891,0.1961159855,1,0
"795",8.6936216354,0.0306861885,8.6939309009,0.1929185838,1,0
"796",10.1703004837,-1.0919792652,10.3501502574,0.1833258867,1,0
"797",10.0851278305,-1.6937278509,10.4815482637,0.2067747563,1,0
"798",8.1173200607,0.2932401896,8.6093138539,0.306964457,1,0
"799",6.6107029915,-0.6325845122,7.1112221802,0.493488282,1,0
"800",8.8928575516,-0.9256750345,9.2997225976,0.4657762349,1,0
"801",10.0261507034,-0.6927593946,10.4150760097,0.3964959383,1,0
"802",8.2129707336,-0.9346563816,8.4505058363,0.3559935391,1,0
"803",4.903652668,-0.6677613854,4.9760626957,0.4892248213,1,0
"804",4.0109090805,-0.938847661,4.1339109868,0.4647101462,1,0
"805",12.0376672745,-0.963696003,12.4001142189,-0.0255804621,1,0
"806",15.1971473694,0.5849835277,16.0083596325,-0.0831367001,1,0
"807",10.9169483185,1.6281641722,12.4727547316,0.023448335,1,0
"808",8.5562076569,-0.5730084181,9.1030967893,0.7215800285,1,0
"809",14.6801223755,-3.8218524456,15.3225363713,0.8771944046,1,0
"810",19.5042915344,-4.2453217506,19.9609864236,0.9709890485,1,0
"811",14.1289682388,-1.9703526497,14.2658244826,1.3014024496,1,0
"812",11.3947544098,-2.5414152145,11.7118996905,1.854578495,1,0
"813",9.3233623505,-4.0585103035,10.1911056784,2.137029171,1,0
"814",8.6804485321,-3.73218894,9.5428636181,1.8737639189,1,0
"815",10.8019866943,0.6821315289,10.8550537294,1.5561406612,1,0
"816",12.2521715164,-0.1734892279,12.2534716611,1.6435402632,1,1
"817",10.7181615829,-1.4771282673,10.8437281891,1.4335678816,1,0
"818",7.2191877365,-2.0965402126,7.6815413045,0.7141188979,1,0
"819",4.9050002098,-2.7048752308,6.0237307149,0.1012555137,1,0
"820",4.5536804199,-2.9286599159,5.9545768509,-0.3282819986,1,0
"821",6.3090801239,-2.1526734829,6.7557933106,-0.7141197324,1,0
"822",7.0274362564,-1.4832655191,7.2149828044,-1.0594552755,1,0
"823",8.4476833344,-1.7284556627,8.6227020298,-1.2225302458,1,0
"824",8.7711601257,-2.8107051849,9.2157209172,-1.2395837307,1,0
"825",9.2747135162,-4.1761655807,10.1839889374,-1.0679819584,1,0
"826",9.092092514,-4.1164398193,10.0750839495,-0.8164415956,1,0
"827",8.2138690948,-3.1293923855,9.1834728731,-0.5574398041,1,0
"828",7.4527020454,-2.5876688957,8.50192239,-0.4657770097,1,0
"829",8.3147592545,-2.1722826958,9.1091693835,-0.4060891867,1,0
"830",9.915230751,-1.8191670179,10.2779725019,-0.5435836911,1,0
"831",10.8106689453,-2.0142114162,10.9968132258,-0.7141197324,1,0
"832",10.596613884,-3.0418245792,11.0250492986,-0.5275961757,1,0
"833",10.9485321045,-5.3006272316,12.3554014433,0.0287778527,1,0
"834",16.8780021667,-4.2563986778,18.0186348987,-0.0447661392,1,0
"835",18.9082298279,0.8650510907,19.2804451501,-0.2227627784,1,1
"836",11.7525100708,-2.3089485168,12.4202300896,0.4242080152,1,0
"837",7.2051167488,-2.4429199696,8.2035909466,1.0498620272,1,0
"838",7.6327776909,-0.87912184,7.7122276023,0.7759383321,1,0
"839",8.839717865,1.7730629444,9.0172847496,0.3357423246,1,0
"840",9.8158378601,1.3075309992,9.9077640183,0.0117240343,1,0
"841",9.6209430695,-0.1193019077,10.0211735679,-0.0309099797,1,0
"842",10.2491865158,0.380808115,11.2510609444,-0.2824506164,1,0
"843",10.9176969528,-2.6351201534,12.3376517769,-0.0138564268,1,0
"844",11.8343906403,-2.7845096588,13.0990151537,0.2600672543,1,0
"845",9.943821907,-0.4703219533,10.48987709,0.0330410413,1,0
"846",8.4202899933,-1.0981163979,8.710640147,0.061818894,1,0
"847",7.8492274284,-1.5337105989,8.0564334727,0.2099721432,1,0
"848",7.8609032631,-0.0230520628,8.0551042569,0.1737331748,1,0
"849",8.5234251022,0.2079176307,8.7269104536,0.0810045749,1,0
"850",9.1690330505,-1.5289206505,9.6482402086,0.061818894,1,0
"851",9.815987587,-2.643802166,10.6438969134,0.1769305766,1,0
"852",9.2560024261,-2.3385868073,10.0110111649,0.5169368982,1,0
"853",7.2691836357,0.0467028804,7.8853638285,0.8239018917,1,0
"854",6.827152729,-0.3037184179,7.3719809867,0.8366919756,1,0
"855",9.5841197968,-2.2661375999,10.0604291408,0.7770041227,1,0
"856",10.868598938,-1.0955717564,11.3315707313,0.9198281169,1,0
"857",9.7626981735,-0.5586383343,10.4007759245,1.0040303469,1,0
"858",8.2006969452,-1.8925144672,8.8924118955,1.1937515736,1,0
"859",7.9571528435,-1.381177783,8.5735331268,1.0306766033,1,0
"860",7.7389068604,-1.4221925735,8.3930892309,0.7354362011,1,0
"861",8.652756691,-2.0680992603,9.2600389596,0.6352464557,1,0
"862",10.3014278412,-3.1937584877,11.0448695498,0.6693533063,1,0
"863",10.1658096313,-2.9412336349,10.830046248,0.7055922747,1,0
"864",8.2379693985,-2.4743545055,9.0565911333,0.7471604943,1,0
"865",7.6559791565,-2.7878026962,8.7550600952,0.7386335731,1,0
"866",8.9747371674,-3.2277379036,10.0731175484,0.9219599962,1,0
"867",9.5892095566,-3.7571868896,10.8414553982,0.9763182998,1,0
"868",8.0225667953,-2.9485683441,9.198631135,1.0413351059,1,0
"869",7.1079688072,-2.5486001968,8.0228260554,1.1660394669,1,0
"870",7.3902816772,-3.9029836655,8.7171261824,1.2928757668,1,0
"871",7.6088275909,-3.9109172821,9.0723722158,1.3227196932,1,0
"872",6.9733986855,-4.4574308395,9.1350953159,1.2630318403,1,0
"873",7.9905338287,-6.6758174896,10.7693520172,1.3269828558,1,0
"874",11.7375411987,-5.4109477997,13.3370650473,1.0850349665,1,0
"875",14.6965885162,-7.3262152672,16.7174493872,0.8729307055,1,0
"876",15.1538877487,-9.900261879,18.484666398,0.3698496819,5,4
"877",13.9629640579,-8.8745956421,16.5727617827,-0.0159880221,1,0
"878",12.5672664642,-9.2040596008,15.7962026934,-0.140692398,1,0
"879",11.1277093887,-8.4149007797,14.2815641206,-0.104453437,1,0
"880",12.8643980026,-6.9455566406,14.7131855483,-0.1108487546,1,0
"881",12.5488548279,-5.7803797722,13.8353645641,-0.0660831481,1,0
"882",8.9808740616,-5.6332354546,11.1503986647,0.4146153033,1,0
"883",8.2081813812,-6.3590760231,10.9097107913,0.6757486463,1,0
"884",7.5676631927,-7.0389623642,10.5755650002,0.5744928718,1,0
"885",6.9874696732,-6.763235569,9.9756669589,0.3389397264,1,0
"886",6.4455962181,-4.8133907318,8.1047293526,0.071411334,1,0
"887",5.7763381004,-3.9960901737,7.0405066022,-0.0522267185,1,0
"888",4.3517503738,-3.8540353775,5.822065133,-0.3389405012,1,0
"889",2.8340566158,-3.8826260567,5.1436371023,-0.9859115481,1,0
"890",3.397185564,-3.7962555885,6.1001875301,-1.4026587009,1,0
"891",4.5141625404,-3.424279213,6.7777411177,-1.7479943037,1,0
"892",5.9501266479,-2.9626390934,7.31640625,-1.9398473501,1,0
"893",6.1209216118,-2.7170000076,7.2935435759,-2.0624198914,1,0
"894",7.0434532166,-2.990032196,7.7933855524,-2.1700706482,1,0
"895",8.8822288513,-3.9002892971,9.7999171351,-2.2414827347,1,0
"896",11.8358869553,-3.863465786,12.8007562176,-2.4567844868,1,0
"897",14.6769790649,-2.3210732937,15.6288774486,-2.4162824154,1,0
"898",12.2830076218,-2.7669959068,13.618143859,-1.9110692739,1,0
"899",10.0412693024,-2.5412654877,10.6942470736,-1.27795434,1,0
"900",10.3201389313,-2.4496560097,10.6076108564,-0.9645943046,1,0
"901",12.6512413025,-2.8665390015,13.0600291566,-0.5979419947,1,0
"902",11.7376909256,-4.1562571526,12.7747675865,-0.2153021991,0,0
"903",8.706943512,-1.0895842314,8.7852474359,-0.4647106826,0,0
"904",11.7192792892,2.5268952847,12.3137503827,-0.8111120462,0,0
"905",13.1760501862,2.4048988819,14.5553395754,-0.6981322169,0,0
"906",11.8731594086,0.4071533084,14.6963248505,-0.3527966738,0,0
"907",10.6820869446,-0.9238787889,13.2259354778,0.2376842052,0,0
"908",9.6185483932,0.2490820289,9.8572606935,0.4284712076,0,0
"909",9.2622890472,0.8202942014,9.3004547664,0.3634543717,0,0
"910",9.0678434372,-0.3397933841,9.1535507233,0.3186887801,0,0
"911",8.5771636963,-0.8933422565,9.4478622037,0.1151114106,0,0
"912",10.2077226639,-0.6902146935,10.9766295733,0.2558035553,0,0
"913",11.1812982559,0.8705896139,11.9903213888,0.3229524791,0,0
"914",8.9145622253,0.8575666547,9.3231864904,0.353861928,0,1
"915",7.9760136604,-1.3232482672,8.1975176147,0.2504745722,0,0
"916",7.9826002121,-1.8226099014,8.2845111688,0.6469707489,0,0
"917",6.9260969162,-2.1338126659,7.4741798997,1.0765082836,0,0
"918",6.8006577492,-0.6182144284,7.4486930674,1.3760119677,0,0
"919",6.0417361259,-1.0533595085,6.3200740887,1.6318160295,0,0
"920",6.0406885147,-0.4805007875,6.0987303116,1.6915035248,0,0
"921",8.2806301117,1.1900253296,8.6634156903,1.4570167065,0,0
"922",8.9159088135,-0.4755610526,10.3387298849,1.5135066509,0,0
"923",8.1204633713,-2.0166063309,10.2504365409,1.5678650141,0,0
"924",8.7931642532,-1.7010626793,9.9080177439,1.4495556355,0,0
"925",7.7263331413,-1.1000623703,8.7860632904,1.1148785353,0,0
"926",5.760620594,-0.1664538532,6.4613634774,1.102088809,0,0
"927",6.7774562836,-1.0996133089,6.8877963188,1.1852248907,0,0
"928",7.3944730759,-1.8639239073,7.703731366,1.1116812229,0,0
"929",7.8016262054,-3.3778755665,8.6687467964,1.2481099367,0,0
"930",8.199798584,-3.5019676685,9.0646561787,1.4356994629,0,0
"931",7.4594378471,-4.9204177856,9.5388869411,2.1615431309,0,0
"932",6.9971990585,-8.8582792282,11.8238303124,2.4663763046,0,0
"933",13.625415802,-14.0614585876,19.7109653686,2.0837366581,0,0
"934",19.1899452209,-9.3488092422,22.3368993541,1.1234054565,0,0
"935",19.1820106506,-9.0904464722,21.8276957836,0.9486062527,0,0
"936",14.5569286346,-12.5731039047,20.0680513396,0.3581253886,0,1
"937",13.1588363647,-6.6936306953,15.3457701183,-0.0543588474,0,0
"938",8.3972377777,-6.5204405785,10.7106995894,0.4252738059,0,0
"939",11.8954629898,-12.9284648895,17.7925806935,0.5915466547,0,0
"940",8.8513936996,-7.2819070816,11.4697411548,0.3773108125,0,0
"941",6.8255062103,-4.5406575203,8.2004255231,0.3261498809,0,0
"942",6.8255062103,-4.7871952057,8.4227305811,0.3240182996,0,0
"943",6.9693570137,-5.9787173271,9.2340862403,0.1396260709,0,0
"944",5.4227733612,-7.2983727455,9.0928812038,-0.3666528463,0,0
"945",2.905308485,-4.073029995,5.4894384067,-1.0658503771,0,0
"946",2.9659323692,-1.2862751484,4.6130617043,-1.396263957,0,0
"947",3.0249097347,-0.9801617265,3.9181124812,-1.750125885,0,0
"948",2.021995306,-2.113604784,3.390035411,-1.9771521091,0,0
"949",1.5901433229,-2.6270370483,3.4447724142,-2.0890660286,0,0
"950",1.9552340508,-3.3943414688,4.1639255408,-2.2116391659,0,0
"951",6.5587611198,-4.7533655167,8.2090598881,-3.1058871746,0,0
"952",9.7200374603,-1.6657360792,10.176877715,-3.3041353226,0,0
"953",12.7413539886,-0.1453477442,12.7457453791,-2.6624934673,0,0
"954",16.100818634,-4.5740380287,16.9675917537,-1.9782178402,0,0
"955",15.1907110214,-7.2521190643,17.5577668569,-1.4388979673,0,0
"956",12.4325466156,-6.8630781174,14.673304934,-0.9230266213,0,0
"957",8.0499601364,-7.85850811,11.3789370923,0.2376842052,0,0
"958",10.1502428055,-5.4319043159,11.5197683512,0.0724776611,0,4
"959",12.21504879,-2.3454725742,12.4442200262,-0.0916636065,0,0
"960",19.5316829681,4.2752594948,20.0040965653,0.5830197334,0,0
"961",19.5438079834,-9.6594133377,21.8187460277,2.3821744919,0,0
"962",2.1996757984,5.2320699692,8.4420113265,1.3525633812,0,0
"963",-2.6162595749,4.3932142258,8.1267538672,1.0466643572,0,0
"964",7.305109024,3.0660741329,8.5310595145,0.0266457256,0,0
"965",13.1137800217,1.8305433989,13.7230115107,-1.5358899832,0,0
"966",15.5459222794,1.4910492897,15.6455211922,-1.7959573269,0,0
"967",9.6309719086,1.3467494249,9.7323613174,-1.4921902418,0,0
"968",9.407037735,-0.3761677444,9.4149340721,-1.0040311813,0,0
"969",10.0149240494,-2.7081682682,10.419427816,-0.8079146743,0,0
"970",9.5779829025,-3.6122882366,10.353322374,-0.8239024282,0,0
"971",8.5979700089,-0.6587800384,8.7061501524,-0.5435836911,0,0
"972",7.1016821861,3.0798454285,7.9538451583,-0.2067752779,0,0
"973",7.8103084564,1.2734019756,8.4338316678,-0.2909772396,0,0
"974",10.3180437088,-1.1731104851,11.1900011389,-0.4870937467,0,0
"975",9.6454925537,-1.5890954733,10.1879815298,-0.481764257,0,0
"976",7.0236940384,0.0767903104,7.1349786851,-0.2494090348,0,0
"977",4.7825546265,0.3032693565,4.8969654262,-0.1673386544,0,0
"978",4.4985952377,-1.0412347317,5.1363294099,-0.086334087,0,0
"979",9.5746889114,-1.1758048534,10.0964593706,-0.099124454,0,0
"980",15.5878353119,1.3045371771,15.926971668,-0.1012560502,0,0
"981",8.2631168365,1.5456857681,9.312724066,-0.5489131808,0,0
"982",2.8318111897,-2.6128165722,5.3454369453,-0.0341073722,0,0
"983",3.9670505524,-1.7986596823,5.1031097356,0.782333672,0,0
"984",11.2768001556,0.185913384,11.957916217,0.673617065,0,0
"985",13.5465297699,0.6960525513,14.0666172358,0.4668420255,0,0
"986",10.2619104385,1.7806969881,10.7067034677,0.0394360907,0,0
"987",7.804620266,-0.2174977064,8.8372662504,0.2472769022,0,0
"988",10.4981193542,-6.121969223,13.2178184235,1.3610901833,0,0
"989",14.4189157486,-5.3314633369,16.8794608543,3.3755464554,0,0
"990",19.35430336,-2.8192374706,20.1843402858,3.3883368969,0,0
"991",19.5448570251,0.0440084822,19.5592143557,2.5218007565,0,0
"992",19.2743682861,2.2417383194,19.5317304628,2.4493231773,0,0
"993",14.2264156342,-4.7934818268,15.02495432,2.4322695732,0,0
"994",13.1772480011,-6.9969000816,15.2342658249,1.2054759264,0,0
"995",9.6866569519,-5.3567605019,13.0145979862,0.7833994627,0,0
"996",8.0031070709,2.0769309998,9.7915456778,0.2899109125,0,0
"997",6.9510951042,2.6203010082,8.1532032856,0.0756750554,0,0
"998",6.5565156937,1.264121294,7.0783192858,0.1257701814,0,0
"999",4.2375378609,-1.8315911293,4.6165169941,0.0650165528,0,0
"1000",1.0844948292,-3.6018099785,4.722496314,-0.8100462556,0,1
"1001",0.6313869953,-2.8148963451,4.5114727003,-1.2587689161,0,0
"1002",0.6403683424,-2.4827370644,4.177967666,-1.5326926708,0,0
"1003",-0.65713346,-1.2967534065,2.0808486872,-1.844986558,0,0
"1004",0.3827540576,-0.8521778584,1.9262851265,-2.0474982262,0,0
"1005",1.2910652161,-0.7515870929,2.1609209856,-2.0347077847,0,0
"1006",5.3245773315,0.2808160484,5.334145643,-1.922793746,0,0
"1007",18.2540912628,-0.6755452156,18.790401622,-1.9611643553,0,0
"1008",19.5411148071,-5.6537427902,22.2923030964,-1.5369558334,0,0
"1009",15.4227285385,-9.4064388275,18.4060941473,0.6064680815,0,0
"1010",6.7199759483,-10.9537715912,13.2192267294,1.6190259457,0,0
"1011",1.2591814995,-8.208779335,8.4896208281,0.0628849566,0,0
"1012",16.4825248718,2.7376570702,16.8083427423,-1.6776481867,0,0
"1013",19.5674591064,7.4368348122,21.8177872073,1.2630318403,0,0
"1014",16.1407852173,-3.6968622208,16.749145486,2.2073748112,0,0
"1015",-2.9838950634,1.861079812,10.0096659675,-0.4870937467,0,0
"1016",-4.7050156593,4.5285329819,12.3290396425,-0.2717921138,0,0
"1017",9.7520704269,3.8492455482,12.1072339337,-0.5073447227,0,0
"1018",19.4198665619,1.5934364796,19.5161238302,-1.324852109,0,0
"1019",8.975186348,2.5135729313,9.3216560975,-1.6552654505,0,0
"1020",8.4801654816,1.381177783,8.9173450628,-1.2672958374,0,0
"1021",8.5966234207,-5.9228835106,10.4408450677,-0.9432775378,0,0
"1022",8.6650314331,-3.051554203,9.2792029387,-0.6576297879,0,0
"1023",6.9090328217,1.656904459,7.1951741258,-0.3858382404,0,0
"1024",6.4514341354,1.9959493876,6.7790864227,-0.8100462556,0,0
"1025",7.0736904144,1.3867163658,7.4749898343,-1.2854151726,0,0
"1026",6.7497639656,-0.127684474,7.4697229238,-1.7778378725,0,0
"1027",8.8856725693,-0.7397616506,10.0679878766,-1.712821126,0,0
"1028",10.1235980988,-1.8431172371,11.1595348149,-0.7151857615,0,0
"1029",9.710606575,-1.1250604391,9.8713600114,-0.7055928111,0,0
"1030",5.4387898445,0.1977387965,5.4833786975,-0.3634551764,0,1
"1031",7.7586655617,0.2514770627,8.0101868622,0.2067747563,0,0
"1032",12.1641540527,-0.035625916,13.0493582732,0.5073441863,0,0
"1033",9.1134986877,-2.2372477055,11.5631030776,0.5222661495,0,0
"1034",6.8972072601,1.2811857462,9.0811163854,0.903840661,0,0
"1035",6.1896286011,2.8318111897,7.7964280484,1.0935618877,0,0
"1036",7.7462415695,3.6022591591,8.894609306,0.8089799285,0,0
"1037",13.3640594482,0.7902067304,13.4450667967,0.3559935391,0,0
"1038",19.3787021637,-2.8454329967,19.6167643572,1.142590642,0,0
"1039",19.5363235474,-2.1079165936,19.6687720944,1.7426642179,0,0
"1040",16.8009128571,-0.419128418,17.0523119123,2.5633687973,0,0
"1041",18.966758728,-2.1661455631,19.091379571,3.055791378,0,0
"1042",16.3490028381,-4.4795846939,18.586815113,3.2380521297,0,0
"1043",10.6763982773,0.233215034,11.9033943016,1.692569375,0,0
"1044",9.0911951065,-0.814905405,9.1438216399,1.6136966944,0,0
"1045",10.200088501,-3.0398786068,10.6490146092,1.736269474,0,0
"1046",7.8252773285,0.545615375,7.8988977557,1.5007163286,0,0
"1047",7.2393956184,-2.9124934673,7.8055774995,1.3536291122,0,0
"1048",5.015171051,-2.7746300697,5.7452575366,-0.0138564268,0,4
"1049",7.9165873528,-0.6167175174,7.9978143567,0.2248941064,0,0
"1050",4.0119571686,-1.5917898417,4.4291645259,-0.1321654916,0,0
"1051",4.0380029678,-3.0219159126,5.111713959,-0.5116084218,0,0
"1052",4.8279104233,-1.9969972372,5.2334464545,-0.8558776379,0,0
"1053",4.1963734627,-3.0364356041,5.203206013,-0.5649009347,0,0
"1054",4.2694215775,-3.1293923855,5.2944676153,-0.5680983067,0,0
"1055",5.7131695747,-2.5155189037,6.2428991034,-1.1244717836,0,0
"1056",8.2753915787,-0.7312294245,8.3252108344,-1.3706834316,0,0
"1057",8.0962142944,-2.6866130829,8.5439050734,-1.4367660284,0,0
"1058",8.5148935318,-4.999004364,9.9413053316,-1.4474242926,0,0
"1059",10.8763828278,-6.9310369492,13.0012083226,-1.2118717432,0,0
"1060",12.0403623581,-8.9772815704,15.1661935809,-0.3698502183,0,0
"1061",9.3917694092,-7.2088589668,11.8906570815,0.2216964364,0,0
"1062",10.0750989914,-5.1259403229,11.6596596157,0.0628849566,0,0
"1063",13.506114006,1.2349319458,14.2203832338,-0.2803190053,0,0
"1064",19.0110664368,9.8243703842,21.6415394944,-1.0328090191,0,0
"1065",19.5728473663,2.6430537701,19.7588056418,-0.419945091,0,0
"1066",15.0239572525,0.6704557538,15.9037143807,-0.1694702506,0,0
"1067",4.1531133652,-1.6884887218,10.8183034856,0.2526061535,0,0
"1068",7.5733509064,0.9382488728,10.1648236048,0.3037668169,0,0
"1069",11.6469802856,2.909799099,12.1610314544,-0.6672222614,0,0
"1070",8.943901062,3.0633797646,9.4602971888,-1.4751368761,0,0
"1071",6.5041246414,2.5671615601,7.256143532,-2.0720126629,0,0
"1072",7.4476127625,2.6725423336,7.9859768032,-1.7032287121,0,0
"1073",9.1164922714,-0.021106109,9.2179637509,-1.0871673822,0,0
"1074",7.8303666115,0.5251080394,7.9196499741,-0.8089804649,0,0
"1075",7.8739261627,-0.3766168356,8.1832735058,-0.5190695524,0,0
"1076",9.5414581299,-3.3877551556,10.7830423386,-0.7610174417,0,0
"1077",11.6038694382,-1.2952564955,11.9512336381,-0.7023954391,0,0
"1078",8.8948030472,1.6642391682,9.1192320269,-0.8302971721,0,0
"1079",6.7083001137,0.6276447773,7.2135167825,-0.5084105134,0,0
"1080",10.6910676956,-2.9077033997,12.5119242441,-0.2483432293,0,0
"1081",10.8768310547,-0.0869691446,12.2972522178,-0.1023218483,0,0
"1082",7.9968204498,0.8725355268,9.2877749745,-0.1257707179,0,1
"1083",7.25122118,0.0872685239,8.4644498711,-0.1428239942,0,0
"1084",6.9698061943,0.668509841,7.7074494826,0.0980575904,0,0
"1085",8.4285230637,1.384920001,8.8803690399,0.2685939074,0,0
"1086",9.9143333435,2.4391777515,10.4937565725,0.2110379338,0,0
"1087",9.4061393738,1.1885284185,9.6186811835,0.443393141,0,0
"1088",12.4614362717,-3.4476306438,12.997051785,1.1361958981,0,0
"1089",17.9416904449,-3.3307237625,18.6280850921,2.5591056347,0,0
"1090",18.3121700287,0.7493417263,18.6544219228,3.3073322773,0,0
"1091",17.8970832825,0.5316943526,17.9329704919,3.3489003181,0,0
"1092",16.2470645905,1.662891984,16.463020269,3.1911547184,0,0
"1093",14.1105566025,3.1762449741,15.0037887875,2.7498924732,0,0
"1094",12.5382270813,2.1793181896,12.7815389064,2.0933289528,0,0
"1095",14.0656499863,-3.2145652771,15.4580712035,2.2308235168,0,0
"1096",9.9984579086,-4.1354503632,12.9936114533,2.130633831,0,0
"1097",6.7208738327,-4.1493711472,10.233673491,1.260900259,0,0
"1098",5.7465500832,-1.82216084,7.0297725227,0.3293472826,0,0
"1099",4.8364424706,0.4688250721,5.014396731,-0.0788729787,0,0
"1100",3.4516723156,1.4410532713,3.7504831639,-0.1204414591,0,0
"1101",3.444337368,0.4751119912,3.6488621075,-0.2579359412,0,1
"1102",3.4539175034,-1.313668251,3.9033205568,-0.6469712853,0,0
"1103",2.9249176979,-3.1175670624,4.4333704686,-1.1052867174,0,0
"1104",3.0946645737,-2.9963190556,4.465959865,-1.4410295486,0,0
"1105",4.2984614372,-2.8996202946,5.2290102668,-1.6552654505,0,0
"1106",7.1298236847,-2.8261229992,7.6707770345,-1.8407231569,0,0
"1107",10.8057289124,-2.2623953819,11.1990964661,-1.960098505,0,0
"1108",14.7078151703,-2.2481749058,15.0947907209,-1.8865548372,0,0
"1109",12.8652963638,-4.1474251747,13.8381760788,-1.1543160677,0,0
"1110",10.6790924072,-6.7056055069,12.8833703544,-0.1257707179,0,0
"1111",10.7027435303,-7.0596194267,13.2357665572,0.5307930112,0,0
"1112",7.9373941422,-6.9808831215,10.6856552227,0.715185225,0,0
"1113",8.0550498962,-4.7587542534,9.3775525496,-0.0873998851,0,0
"1114",14.781162262,3.5672318935,15.2311394801,-0.7727414966,0,0
"1115",19.5171642303,8.7436180115,21.5779772069,-0.6171276569,0,0
"1116",17.4975643158,5.2329678535,18.2658689302,-0.5521105528,0,0
"1117",17.2508773804,-0.0462538153,18.289941844,-0.9315532446,0,0
"1118",11.0169401169,-2.167642355,14.823944435,-0.9528702497,0,0
"1119",9.4089841843,-1.2314890623,10.7918359063,-0.3634551764,0,0
"1120",8.5463275909,1.5337105989,8.7656807039,-0.5862177014,0,0
"1121",6.8380799294,4.6601090431,9.195702453,-1.6136971712,0,0
"1122",7.0060310364,4.1038661003,8.4514749718,-1.7671793699,0,0
"1123",8.51354599,3.7624258995,9.3536312457,-1.5550756454,0,0
"1124",11.8875293732,-2.4008574486,12.3248086973,-0.8537460566,0,0
"1125",10.1938018799,-1.9212547541,10.6955924823,-0.3325457275,0,0
"1126",8.1849794388,-0.8204438686,8.3789909305,-0.1374950111,0,0
"1127",7.0995864868,-0.9458830357,7.2553031205,-0.197182849,0,0
"1128",5.980214119,0.0077838134,6.1496807233,-0.1726681739,0,0
"1129",10.7555837631,-0.4517605603,11.3793869781,-0.3186893165,0,0
"1130",12.2988739014,-0.6192622185,13.0382766624,-0.3538624644,0,0
"1131",8.8548364639,1.2054432631,9.9699721589,-0.4956206679,0,0
"1132",5.6113810539,0.1142124906,6.7490510627,-0.4071549773,0,0
"1133",8.1518983841,-0.7858657837,9.7680184567,-0.0564904399,0,0
"1134",10.227481842,0.7631130815,11.5086378746,0.1961159855,0,4
"1135",8.5244731903,2.3793022633,9.8805576572,0.175864771,0,0
"1136",7.7842626572,2.1252803802,8.6698266162,0.4018249214,0,0
"1137",9.954000473,0.286354512,10.135185111,0.8857210279,0,0
"1138",15.077246666,-4.4782376289,15.8032339336,1.5476140976,0,0
"1139",17.5357341766,-2.1540207863,17.6862559606,2.6624929905,0,0
"1140",16.8182754517,-0.4915777445,16.8371328969,3.3744807243,0,0
"1141",16.1370429993,0.7264393568,16.27441919,3.4267075062,0,0
"1142",14.5245962143,1.5760725737,14.7723002851,2.9630625248,0,0
"1143",12.6965970993,1.2021501064,12.7821113278,2.3800427914,0,0
"1144",14.4603796005,-2.8392956257,15.3962186456,2.0911972523,0,0
"1145",12.5509500504,-2.0993843079,14.3456471504,1.8428544998,0,0
"1146",8.2303352356,-2.1520748138,9.4866077994,1.5177698135,0,0
"1147",6.1531047821,-1.3859678507,6.5279728457,1.0338740349,0,0
"1148",4.7077102661,-0.0621208176,4.7428432558,0.5318588614,0,0
"1149",4.4563827515,-1.3106744289,4.649040837,0.1534822285,0,0
"1150",4.622387886,-2.5054898262,5.3126059129,-0.2302238792,0,1
"1151",4.8612909317,-2.7211911678,5.7181566275,-0.6459054947,0,0
"1152",5.0088839531,-2.5532405376,5.6318021548,-0.9059727788,0,0
"1153",4.7836022377,-2.3246657848,5.3498871123,-0.9763191342,0,0
"1154",4.4997925758,-2.9201276302,5.3780039001,-1.0626527071,0,0
"1155",4.8900313377,-2.5297393799,5.5320147832,-1.1628428698,0,0
"1156",6.2390260696,-1.7982106209,6.5137635277,-1.3205883503,0,0
"1157",8.9709949493,-1.8504519463,9.427660126,-1.5849193335,0,0
"1158",12.6705513,-3.3406031132,13.7463013269,-1.8353941441,0,0
"1159",12.9450807571,-5.5330939293,14.8128765074,-1.5977094173,0,0
"1160",10.8886566162,-6.0402393341,12.8532258137,-0.8665361404,0,0
"1161",10.503657341,-6.7638344765,12.6513674513,-0.1758655757,0,0
"1162",10.4975204468,-7.0801267624,12.6696772428,-0.0468977354,0,0
"1163",10.1487455368,-5.8692946434,11.7544469332,-0.2653967738,0,0
"1164",11.9496507645,-1.4293775558,12.0386188878,-0.1822606176,0,0
"1165",19.3010139465,4.7054648399,19.9406414367,-0.2877798676,0,0
"1166",19.5433597565,-0.0175135806,20.6253114619,0.6203244925,0,0
"1167",10.2469415665,-1.6455280781,10.4205509929,0.8356261849,0,0
"1168",7.59745121,4.2480163574,12.733756096,-0.2419484556,0,0
"1169",7.8056678772,7.2727761269,12.8603550849,-2.1263709068,0,0
"1170",11.2236604691,4.4505448341,12.688420004,-2.154083252,0,0
"1171",11.4496898651,1.6241226196,11.8058410929,-2.3512654305,0,0
"1172",9.728269577,-1.5753240585,9.971696472,-1.0924966335,0,0
"1173",10.2225418091,-4.1421861649,12.6281776584,0.1385602802,0,0
"1174",9.3495578766,-1.5515235662,9.5479366131,0.0074605793,0,0
"1175",8.6545524597,5.1748886108,10.3276621936,-0.0767413825,0,0
"1176",8.3876581192,3.3932936192,11.0310909271,-0.3005699515,0,0
"1177",8.9748868942,-3.4594559669,11.693156949,-0.2568701506,0,1
"1178",8.8858222961,1.2633727789,9.2518176793,-0.2035776228,0,0
"1179",10.0159721375,0.3170407116,10.0210254886,-0.2867140472,0,0
"1180",9.1491241455,-0.2354603559,9.154656698,-0.1161777377,0,0
"1181",5.9390497208,-0.7779322863,5.9926111502,-0.1268365085,0,0
"1182",4.1710762978,0.8093669415,4.8387973199,-0.1513509005,0,0
"1183",5.9619522095,0.6164181232,7.4026204805,-0.2248948961,0,0
"1184",10.3645963669,-0.7286846638,11.8704748265,-0.218499586,0,0
"1185",10.6452627182,-1.2352312803,11.7854838163,0.0554241091,0,0
"1186",5.8722887039,1.3862671852,6.3939295948,0.4838958383,0,0
"1187",5.9332118034,0.8440946937,6.5690106748,0.5403857231,0,0
"1188",11.7279615402,0.0118254088,12.8388181253,0.4412615597,0,0
"1189",14.3425741196,-0.0109272767,15.0780673169,0.6810778975,0,0
"1190",13.9735918045,-1.2100836039,14.2570055422,1.4953873158,0,0
"1191",18.0205764771,-2.361489296,18.515418973,2.6454396248,0,0
"1192",19.4469604492,-0.3659889102,19.5384978739,3.117610693,0,0
"1193",18.685792923,-0.2815644741,18.8349921022,3.1474547386,0,0
"1194",15.3327655792,2.1445903778,16.1934468897,2.9619967937,0,0
"1195",13.7733078003,1.8056950569,13.998178091,2.3970963955,0,0
"1196",15.5535564423,-3.6742594242,16.5131847993,2.2105724812,0,0
"1197",12.1159543991,-3.8784346581,14.2621670362,2.1785969734,0,0
"1198",8.3375120163,-1.7551002502,10.3000187105,1.6307501793,0,0
"1199",7.59745121,-0.4026626647,8.170694824,0.7610166669,0,0
"1200",6.0688300133,0.2396516353,6.0872420552,0.4167468846,0,0
"1201",3.8910086155,-0.1486409009,4.0065211545,0.3112276495,0,0
"1202",2.0820205212,-2.3427782059,3.3649773303,0.1566796303,0,4
"1203",1.4919475317,-4.2182283401,4.7174363487,-0.1961165071,0,0
"1204",2.2465283871,-3.1019992828,3.8707283841,-0.6395102143,0,0
"1205",3.0410759449,-2.1257295609,3.7119775218,-1.2012132406,0,0
"1206",3.4326617718,-1.7586927414,3.8737558398,-1.3717492819,0,0
"1207",4.3685154915,-0.9710307121,4.5245699346,-1.6691212654,0,0
"1208",6.1944184303,-0.5551954508,6.2750878924,-1.9664936066,0,0
"1209",9.12068367,-0.4950205982,9.3400610336,-2.2084414959,0,0
"1210",14.5904588699,-0.9011260867,14.8027924867,-1.922793746,0,0
"1211",15.0712594986,-4.1053628922,15.9684098239,-1.1777642965,0,0
"1212",10.3936367035,-6.4060783386,12.4080178949,-0.6149955392,0,0
"1213",6.9585795403,-6.6235761642,9.7970957754,-0.2153021991,0,0
"1214",9.9632816315,-4.6508283615,11.0512210223,-0.5446494818,0,0
"1215",17.5926151276,-0.4209246933,17.7999724656,-0.8846555352,0,0
"1216",19.5397663116,4.227209568,19.995700374,-0.1481535137,0,0
"1217",14.9323482513,-2.0586690903,15.0938212707,0.0820703655,0,0
"1218",4.2502613068,0.5848338604,10.3110195138,-0.4444597363,0,0
"1219",6.6862959862,-0.8912466168,7.8916116532,0.6384438872,0,1
"1220",7.3248677254,0.560284853,8.4823177647,0.7983214259,0,0
"1221",10.3511247635,2.2528152466,10.6741581676,0.2323546857,0,0
"1222",7.6818752289,2.3159837723,8.0764531484,-1.0285458565,0,0
"1223",10.6223602295,4.2882823944,11.6644974645,-1.3813419342,0,0
"1224",10.4856948853,-2.0167560577,10.6873304566,-0.8409562111,0,0
"1225",9.0961341858,-2.1573138237,9.7957480724,-0.4870937467,0,0
"1226",8.9442005157,1.3307327032,9.4330183087,-0.0287783854,0,0
"1227",8.9666538239,1.3257930279,9.4884629717,-0.3805087209,0,0
"1228",9.2842931747,-1.2464579344,9.9427081202,-0.6512345076,0,0
"1229",9.3311462402,-1.0620415211,9.5352906714,-0.654432416,0,0
"1230",9.8737678528,0.6867718697,10.1090278389,-0.5499789715,0,0
"1231",11.0259218216,0.1941462755,11.528212067,-0.2749894857,0,0
"1232",10.6561899185,-0.9385482669,11.3471217333,-0.0660831481,0,0
"1233",8.6118917465,-1.3066328764,9.2268953191,0.2771208286,0,0
"1234",7.0801267624,-0.1588197351,7.3077089966,0.5627682805,0,0
"1235",7.3112463951,-0.4090992808,7.6100981132,0.3879690468,0,0
"1236",10.3937864304,-1.0340496302,11.1777028069,0.3453350365,0,0
"1237",10.3722305298,0.7382647991,10.8356343882,0.48709324,0,0
"1238",5.2632050514,-0.5432203412,5.5090474361,0.629916966,0,0
"1239",8.0628328323,-0.3517684937,8.0867606956,0.8963795304,0,0
"1240",13.1133308411,-0.5945636034,13.2554408005,0.7375677824,0,0
"1241",12.7775793076,-0.219443664,13.0796224268,0.7279753685,0,0
"1242",7.8450360298,-0.6373745799,8.4987931236,0.5659661889,0,0
"1243",5.975124836,-1.3015434742,6.9320627161,0.8729307055,0,0
"1244",6.3394670486,-1.9163149595,7.7203204453,0.9059722424,0,0
"1245",19.1148014069,-0.9481283426,20.2516297991,0.4465905428,0,0
"1246",18.0918273926,0.3231779337,19.3094997606,0.6107318401,0,0
"1247",14.7292203903,-1.6004718542,14.956883834,0.9613963366,0,0
"1248",10.925031662,-2.6689498425,11.2844696945,1.8599079847,0,0
"1249",9.5972919464,-3.3409025669,10.2240909536,1.9025417566,0,0
"1250",9.8822994232,-3.9239401817,10.7441205647,1.890817523,0,0
"1251",8.9245910645,-2.0384609699,9.5905525769,2.1690044403,0,0
"1252",9.3724594116,-1.0933264494,9.9038575951,2.2148358822,0,0
"1253",10.5190753937,-1.601369977,11.0965930143,1.7320057154,0,0
"1254",16.4762382507,-2.5976979733,17.0930947801,1.3419048786,0,0
"1255",13.9331760406,-3.5598971844,14.5260328546,1.3408390284,0,0
"1256",12.1280794144,-5.4091515541,13.2800349858,1.3173904419,0,0
"1257",8.9428529739,-4.8572492599,10.182061177,1.3738803864,0,0
"1258",5.2489848137,-4.4655137062,6.9006551459,1.2108054161,0,0
"1259",3.3135094643,-4.5925998688,5.6921451589,0.9752525091,0,0
"1260",3.3525781631,-4.7331571579,6.0985664309,0.6043365002,0,0
"1261",5.0256490707,-4.3849811554,7.168659495,0.2376842052,0,1
"1262",6.0188336372,-3.889811039,7.3097714281,-0.1129803509,0,0
"1263",6.7225203514,-4.3523492813,8.0288348296,-0.3964964747,0,0
"1264",6.3595252037,-5.0314869881,8.1092470486,-0.553176403,0,0
"1265",5.1742901802,-5.3446359634,7.4435323406,-0.6395102143,0,0
"1266",5.2684440613,-5.6029987335,7.6911793409,-0.8239024282,0,0
"1267",5.9838066101,-5.7052359581,8.2760914985,-1.0029653311,0,0
"1268",6.8319430351,-5.3893928528,8.8730406412,-1.0104261637,0,0
"1269",7.7098674774,-4.9114365578,9.4293586023,-0.9571337104,0,0
"1270",8.0721139908,-5.684129715,10.2050338292,-0.9997674227,0,0
"1271",8.9807243347,-6.7195267677,12.0703832927,-1.1319329739,0,0
"1272",9.9005613327,-6.7398843765,12.9727497597,-1.1308671236,0,0
"1273",9.7008771896,-6.135740757,12.0975446243,-0.9805822968,0,0
"1274",8.1565380096,-5.5913228989,10.4287324732,-0.9017093182,0,0
"1275",6.8268532753,-5.3224816322,9.0228067285,-0.9603310823,0,0
"1276",5.1940488815,-4.5788283348,7.1419831368,-1.1852254868,0,0
"1277",4.7497730255,-3.8070333004,6.1764841373,-1.5369558334,0,0
"1278",9.5971422195,-5.7667579651,11.1976149881,-1.7810359001,0,0
"1279",19.4755496979,-1.879940629,19.5815017601,-1.4921902418,0,0
"1280",19.5438079834,-0.7952961922,20.2831609029,-0.0021321268,0,0
"1281",2.8581564426,-0.8095166087,5.0461848587,-0.1481535137,0,0
"1282",0.4881349206,-1.6085549593,1.6877206729,-0.4156818986,0,0
"1283",4.6488823891,-1.0407856703,4.8330821049,-0.8452194333,0,0
"1284",10.8226442337,3.6455190182,11.7094663748,-0.8313634992,0,0
"1285",12.5772953033,3.9432499409,13.3549317584,-0.6086007357,0,0
"1286",10.9361085892,-0.1425036639,10.9963081407,-0.2515411675,0,0
"1287",12.0441045761,-1.4374607801,12.2375736659,-0.2526069582,0,0
"1288",10.1336269379,-4.3845324516,12.9121340439,-0.8612071872,0,0
"1289",8.9958429337,-1.7470170259,10.3380789986,-1.1010235548,0,0
"1290",9.4654169083,-1.3864169121,10.1281337833,-1.0392041206,0,0
"1291",11.5755786896,0.9271719456,11.6142587568,-0.7428978682,0,0
"1292",9.7017745972,0.4087998867,9.9182729836,-0.5521105528,0,0
"1293",7.6211018562,0.104183346,7.8231316819,-0.497752279,0,0
"1294",8.6867361069,-1.7444723845,8.8679033301,-0.4966864586,0,0
"1295",9.5222978592,0.1308279485,9.9799928794,-0.5403862596,0,0
"1296",8.5991678238,-0.7297325134,9.0307929639,-0.6917369366,0,0
"1297",7.7615098953,-0.9502239823,8.1260511452,-0.6821444631,0,0
"1298",8.1983013153,-2.1550683975,8.7073988223,-0.9208949804,0,0
"1299",10.5963144302,-1.6598982811,11.0721583042,-1.2193328142,0,0
"1300",11.7170343399,2.7141559124,12.1610766245,-1.3610907793,0,0
"1301",11.2917690277,4.2314009666,12.2020602378,-1.360024929,0,0
"1302",11.6385974884,-0.107326813,11.9456784658,-1.3163251877,0,0
"1303",12.0198545456,-4.6491818428,13.0630163063,-0.6618932486,5,4
"1304",10.8693466187,-5.1003437042,12.1023499028,-0.1481535137,0,0
"1305",8.3768806458,0.5135819912,8.4969162677,0.5958098769,0,0
"1306",8.7198171616,1.3295352459,8.9563204138,0.4444589615,0,0
"1307",9.4613752365,1.1937675476,9.7187657003,0.3634543717,0,0
"1308",9.0859556198,1.293310523,10.0127844152,0.353861928,0,0
"1309",7.6317296028,1.9484981298,9.0044841192,0.3229524791,0,0
"1310",7.454498291,1.7298028469,8.3219779913,0.3218864202,0,0
"1311",8.2809295654,1.4825171232,8.6750988166,0.5553076863,0,0
"1312",12.3728208542,-1.1912227869,12.4484575779,0.9763182998,0,0
"1313",14.8438816071,-2.4099884033,15.0384958294,1.2257273197,0,0
"1314",14.866484642,-1.6145424843,14.989846417,2.3619232178,0,0
"1315",11.6475791931,-2.04519701,11.8905781608,3.4405634403,0,0
"1316",11.32305336,-3.5139427185,11.8657916857,3.6761162281,0,0
"1317",13.0759086609,-3.2849190235,13.6486258797,3.2380521297,0,0
"1318",12.6650133133,-2.9828472137,13.3535194815,2.6123981476,0,0
"1319",10.5612878799,-0.4168830812,10.9943000591,1.7181497812,0,0
"1320",10.1333274841,-0.2433938533,10.6037482059,1.2726244926,0,0
"1321",8.2571296692,-1.470541954,9.3249240412,0.3208203614,0,0
"1322",7.2049670219,-3.116219759,8.7776922981,0.2771208286,0,0
"1323",6.339017868,-4.1347017288,8.3059133951,0.2419479191,0,0
"1324",5.5345907211,-4.524641037,7.3165412886,-0.2089068741,0,1
"1325",4.6812152863,-4.5357179642,6.5248080521,-0.7897952795,0,0
"1326",4.3439664841,-4.0002813339,5.9055653332,-1.3099298477,0,0
"1327",4.9347882271,-3.2340247631,5.9006527814,-1.6893727779,0,0
"1328",5.6431150436,-2.0333716869,6.0117488907,-1.8300646544,0,0
"1329",6.8620305061,-2.1652474403,7.1955378163,-1.6915043592,0,0
"1330",7.75192976,-2.04519701,8.0324155207,-1.4261075258,0,0
"1331",9.4658660889,-2.1170475483,9.9707450186,-1.2374521494,0,0
"1332",11.9080371857,-2.3947200775,12.439205187,-1.28115201,0,0
"1333",13.8216581345,-3.8857696056,14.7219644264,-1.4175807238,0,0
"1334",9.71180439,-4.5767326355,10.7437314231,-1.0338748693,0,0
"1335",8.1174697876,-4.5610151291,9.3235993261,-0.5094768405,0,0
"1336",8.2542848587,-3.3531770706,8.9150758079,-0.3389405012,0,0
"1337",10.0587825775,-2.0225939751,10.3017629504,-0.7759388685,0,0
"1338",12.9714260101,0.5282514691,13.0435063016,-1.348300457,0,0
"1339",12.8965816498,1.1743080616,13.0423159372,-1.1905549765,0,0
"1340",10.5328464508,1.537452817,10.9023283545,-1.240649581,0,0
"1341",11.7025146484,-0.2671943605,12.4068864712,-1.3014031649,0,0
"1342",13.2645158768,-0.4731660485,13.8531999217,-0.9816480875,0,0
"1343",14.1541166306,-0.9141490459,14.1986341437,-0.5318593979,0,1
"1344",11.1197767258,-0.8416996598,11.1608008925,-0.014922224,0,0
"1345",9.9307985306,1.4814692736,10.3706847259,-0.1332312971,0,0
"1346",9.3928174973,2.1796174049,11.2347305093,-0.6512345076,0,0
"1347",9.2001686096,0.0031434631,10.5609776229,-0.7674122453,0,0
"1348",8.7940626144,-0.3411405981,9.3937540284,-0.4327354431,0,0
"1349",9.3702144623,0.2261796594,9.6394584358,-0.1023218483,0,0
"1350",9.1926841736,0.1204994172,9.3971020391,0.0245141312,0,0
"1351",8.6553010941,-0.2685415745,8.9504301,0.12150646,2,0
"1352",9.3447675705,-1.3183085918,9.7560550766,0.3250840902,2,0
"1353",8.2581768036,-1.807191968,8.6254533289,0.5819539428,2,0
"1354",6.9976482391,-2.1392014027,7.3704659701,1.0455982685,2,0
"1355",9.2748632431,-3.7574863434,10.0624359318,1.6307501793,2,0
"1356",10.1897602081,0.3221301138,10.3130252589,1.6136966944,2,0
"1357",9.3537483215,1.2609777451,9.9056400147,1.1660394669,2,0
"1358",8.0674734116,-1.4320720434,8.959123822,1.0296108723,2,0
"1359",7.5797877312,-1.0059082508,8.4540189316,0.8899844885,2,0
"1360",6.6544122696,0.1811233461,7.1288725384,0.7471604943,2,0
"1361",7.2158946991,0.1173559576,7.4425257524,0.7098557353,2,0
"1362",8.7469110489,-0.4423301816,8.9602614583,0.5414515138,2,0
"1363",11.1645336151,-2.0493881702,11.3572228661,0.5499781966,2,0
"1364",9.4154205322,-3.1100826263,9.9350832514,0.7311727405,2,0
"1365",10.1390161514,-3.3382081985,10.6950549811,0.7940577269,2,0
"1366",9.7375507355,-3.7711079121,10.5186583635,0.8164407611,2,0
"1367",8.2773370743,-3.1593301296,9.3624635418,0.7993872166,2,0
"1368",7.8538680077,-1.4967374802,8.5160115845,0.5904806256,2,0
"1369",7.5959539413,-0.5533992052,8.3126101379,0.5979414582,2,0
"1370",7.4637789726,-2.1157004833,8.7670788435,1.0093593597,2,0
"1371",9.7071638107,-5.37921381,11.8805336356,1.2001469135,2,0
"1372",16.7705249786,-7.3420820236,18.9015473878,0.8441528082,2,0
"1373",19.5370731354,-3.3542249203,21.1375752778,0.6832094789,2,0
"1374",12.9639415741,-4.2189764977,13.6924359902,1.4687410593,2,0
"1375",10.8600664139,-6.8419718742,12.9315466705,1.9025417566,2,0
"1376",14.9827928543,-8.5295629501,17.2756572593,1.7128205299,2,0
"1377",14.4626245499,-6.0897860527,16.1141349206,1.0839691162,2,0
"1378",10.8533306122,-2.6074278355,11.7718471574,0.832428515,2,0
"1379",9.5824728012,-2.3373894691,10.4061689861,0.7013291121,2,0
"1380",10.554851532,-3.988306284,11.5913017546,0.5371881127,2,0
"1381",10.7469015121,-5.1413583755,12.0696115037,0.6906706095,2,0
"1382",7.6755886078,-5.874833107,9.6971356125,0.7503578663,2,0
"1383",4.3947110176,-3.8022432327,5.8169761568,0.5840855837,2,0
"1384",2.8648924828,-2.4682173729,3.7936965763,0.19505018,2,0
"1385",3.6854860783,-3.3117132187,5.0864381324,0.0586215034,2,0
"1386",3.9258861542,-4.331392765,6.309945071,-0.0948610008,5,4
"1387",4.5924501419,-4.0383024216,6.2747134079,-0.7343711853,2,0
"1388",3.6491117477,-3.4232313633,5.0121516385,-1.4069224596,2,0
"1389",2.148182869,-3.0100905895,3.6980942948,-1.8513818979,2,0
"1390",0.9897418022,-2.6729915142,3.0298260362,-2.2190999985,2,0
"1391",1.6329542398,-3.6476147175,4.3733901195,-2.6720862389,2,0
"1392",4.3469605446,-3.7184174061,6.4935179448,-3.0611214638,2,0
"1393",7.2793626785,-2.4104375839,8.6391180839,-3.3275840282,2,0
"1394",11.7102985382,-0.5592370629,12.7674919267,-2.9236271381,2,0
"1395",16.80884552,-1.3198055029,17.7290878683,-1.7224137783,2,0
"1396",12.3484210968,-3.9413039684,13.0237925023,-1.2854151726,2,0
"1397",10.0801877975,-3.71093297,10.7423306098,-1.1809623241,2,0
"1398",8.8724994659,-2.1294717789,9.1290015239,-0.8995777369,2,0
"1399",11.1739635468,-1.8543438911,11.326864154,-1.355761528,2,0
"1400",12.0198545456,-2.8457322121,12.4146948834,-1.9387812614,2,0
"1401",13.3275356293,-0.9231303334,13.4379462589,-1.9238595963,2,0
"1402",16.5855102539,-2.9865894318,16.8945904081,-1.4154490232,2,0
"1403",14.2334518433,-3.5612442493,14.6813967747,-0.6693538427,2,1
"1404",8.1857280731,-3.4343082905,9.2664603103,0.0223825369,2,0
"1405",17.5155258179,-7.1446428299,18.9277125079,1.0200181007,2,0
"1406",19.5387191772,-2.8836035728,20.7698196067,1.1298007965,2,0
"1407",13.172457695,-0.0462538153,14.4012392147,0.8686674833,2,0
"1408",4.9258065224,-1.6687299013,7.9061674935,0.2206306458,2,0
"1409",2.8993208408,-1.3600716591,8.2034616746,-0.559571445,2,0
"1410",6.4402074814,-0.7604187131,8.016632909,-0.9656606317,2,0
"1411",12.0415592194,-0.8940907121,12.1326496337,-1.0615868568,2,0
"1412",14.2933273315,1.6649876833,15.3188015175,-0.7428978682,2,0
"1413",10.0842294693,-1.5886464119,11.3664001821,-0.3346773088,2,0
"1414",8.809630394,-1.7794995308,8.9919770827,-0.2387505323,2,0
"1415",9.9628324509,-4.1101527214,11.0750475054,-0.4135502875,2,0
"1416",10.0231571198,-5.4006195068,11.8597384713,-0.8217705488,2,0
"1417",10.4213285446,-2.7268793583,11.1929727307,-0.8047172427,2,0
"1418",9.7902412415,0.5731580853,9.983597464,-0.3325457275,2,0
"1419",8.8259468079,-0.2671943605,8.8722190261,-0.0767413825,2,1
"1420",8.7726573944,-0.8231382966,8.8661037505,-0.2238291055,2,0
"1421",9.6465396881,-2.049687624,9.9373587352,-0.3101626635,2,0
"1422",11.0727739334,-1.5087126493,11.3492045254,-0.3080310524,2,0
"1423",11.3202095032,-0.6987469196,11.5333842135,-0.3176234961,2,0
"1424",9.1961269379,-0.5825884938,9.3567542991,-0.1747997701,2,0
"1425",8.9412069321,-0.9548643231,9.1631970399,-0.0884656832,2,0
"1426",8.9697971344,-1.6247214079,9.2790968738,-0.16840446,2,0
"1427",9.9173269272,-1.8181191683,10.1974427552,-0.3165577054,2,0
"1428",10.3868999481,-0.9728270173,10.5740376497,-0.3240188062,2,0
"1429",10.8268356323,-0.0781375095,11.0108862674,-0.2334215492,2,0
"1430",9.9376840591,-0.4397854507,10.1307375628,-0.140692398,2,0
"1431",9.5715456009,-0.435294807,9.8032618485,-0.0714121312,2,0
"1432",9.8340997696,-0.2136058062,10.0827796301,-0.1161777377,2,0
"1433",9.4432630539,0.0697549433,9.6963897279,-0.1833264232,2,0
"1434",9.0429954529,0.4730163515,9.2779695513,-0.1961165071,2,0
"1435",9.5911550522,0.1242416352,9.9423589763,-0.2089068741,2,0
"1436",9.6369600296,-0.2457888722,10.0432494461,-0.1939849257,2,0
"1437",10.7617206573,-0.048349455,11.2615764819,-0.158811748,2,0
"1438",10.6469097137,-0.0549357608,11.2054320105,-0.1652070731,2,0
"1439",10.0200128555,-0.2303709388,10.2775412134,-0.1279022992,2,0
"1440",9.4137735367,-0.2272274792,9.5611766822,-0.0511609241,2,0
"1441",8.8268442154,-0.8099656701,9.0351165625,0.0053289854,2,0
"1442",9.5697498322,-1.1171269417,9.9658849539,-0.0373052955,2,0
"1443",11.0178384781,-0.9148974419,11.4703225037,0.0117240343,2,0
"1444",10.0915641785,0.1963915974,10.4295931351,0.0948602036,2,0
"1445",9.2003173828,-0.528401196,9.5178989644,0.1300333738,2,0
"1446",8.5288143158,-1.0825488567,8.9606501459,0.1971820444,2,0
"1447",9.9581918716,-0.6979985237,10.4629830489,0.3016352057,2,0
"1448",10.230175972,-0.2264790386,10.6526853802,0.2696599662,2,0
"1449",9.8188314438,-0.105979614,10.2395111009,0.2174332589,2,0
"1450",8.4500780106,-1.0063573122,8.706755232,0.1257701814,2,0
"1451",7.7055263519,-0.4957690537,8.022544566,0.136428684,5,4
"1452",8.5433340073,-0.8014333844,9.1517539589,0.1055187061,2,0
"1453",9.7739248276,-0.9728270173,10.2884870758,0.2771208286,2,0
"1454",9.6201944351,-0.943787396,10.2373560633,0.4348665178,2,0
"1455",8.982670784,-1.2516970634,9.3856214246,0.4913564026,2,0
"1456",8.9365663528,-1.577270031,9.2329397877,0.3922322392,2,0
"1457",9.2708215714,-1.0228229761,9.4978442507,0.3325449228,2,0
"1458",8.2129707336,-0.3550616503,8.3490083391,0.4711052179,2,0
"1459",7.2088589668,0.5328918695,7.4391841745,0.664024353,2,0
"1460",9.4378738403,-1.776356101,9.6203923281,0.8963795304,2,0
"1461",10.6409225464,-2.7818152905,11.0240607244,0.7983214259,2,0
"1462",10.1858682632,-1.1054512262,10.7008127207,0.7333046198,2,0
"1463",8.0068492889,-0.7147636414,9.1603303222,0.6064680815,2,0
"1464",6.303841114,-1.4647041559,7.2206949363,0.490290612,2,0
"1465",8.8696556091,-1.5715818405,9.3456470005,0.4071544409,2,0
"1466",10.1631155014,-1.2198133469,10.7870519092,0.5243977308,2,0
"1467",12.9048147202,-2.2891895771,13.4336664454,0.5478466153,2,0
"1468",17.2607555389,-2.2794599533,17.7322505267,0.1598770171,2,0
"1469",13.7533998489,-1.2778925896,14.314126801,-0.2067752779,2,0
"1470",8.589887619,-2.6653573513,9.026384462,0.1438895315,2,0
"1471",6.6406407356,-4.0356078148,7.7708597328,0.4114179015,2,1
"1472",10.0291442871,-6.9081344604,12.4515405889,0.0831361637,2,0
"1473",15.5161342621,-2.803819418,16.5951044424,-0.3432039618,2,0
"1474",14.977853775,3.1234047413,16.4757215883,-0.2206311822,2,0
"1475",10.9920921326,0.8336164951,11.7824168955,0.0042631882,2,0
"1476",9.8507156372,-3.7278478146,10.6604249892,-0.0831367001,2,0
"1477",11.3880186081,-4.13829422,12.1754447589,0.0287778527,2,0
"1478",11.9408187866,-2.9828472137,12.3211168838,0.3922322392,2,0
"1479",10.6614294052,-1.8067429066,10.8163078527,0.7961898446,2,0
"1480",9.1090078354,-2.7927424908,9.5398822654,1.2704929113,2,0
"1481",9.2798023224,-3.9676492214,10.1281718243,1.3291144371,2,0
"1482",9.4205102921,-2.8993208408,9.8977499515,1.2715587616,2,0
"1483",9.6939916611,-1.1591894627,10.0285690385,1.0669156313,2,0
"1484",10.5093460083,-1.1207194328,10.5921255121,0.7919260859,2,0
"1485",10.5738611221,-1.3724958897,10.7107982446,0.6746828556,2,0
"1486",9.9135847092,-2.4345374107,10.5713889736,0.4775005281,2,0
"1487",8.4626522064,-2.7912454605,9.9104245412,0.3154913783,2,0
"1488",7.3167848587,-3.6125876904,9.5837254541,-0.0810051039,2,0
"1489",7.3935751915,-3.2488439083,8.4524272976,-0.5521105528,2,0
"1490",7.0774326324,-2.658172369,7.5961734374,-0.8569434285,2,0
"1491",6.2879738808,-2.1157004833,6.6524088347,-1.0541257858,2,0
"1492",5.9252781868,-2.285597086,6.4077361081,-1.1884227991,2,0
"1493",6.0628423691,-2.6173071861,6.7403096471,-1.3685518503,2,0
"1494",6.1052041054,-2.6625132561,6.9445317004,-1.6968333721,2,0
"1495",6.5963330269,-1.93861866,7.1605869794,-1.996337533,2,0
"1496",7.4482111931,-1.043330431,7.7744427055,-2.0538933277,2,0
"1497",8.8436098099,-0.9913883805,9.0618172224,-2.026181221,2,0
"1498",11.9644699097,-0.9990225434,12.0615202353,-2.0272469521,2,0
"1499",14.2210273743,0.2073188722,14.27421627,-1.7373358011,2,0
"1500",12.167298317,-2.1124072075,12.6138032419,-1.27795434,2,0
"1501",11.1143875122,-3.8467006683,12.0058839995,-0.7524905205,2,0
"1502",10.7638168335,-2.6634113789,11.2280540882,-0.0842024982,2,0
"1503",10.5286560059,-1.8350340128,10.7694405713,-0.0095932391,2,0
"1504",12.9989681244,-0.5563929677,13.0173523342,-0.4934890866,2,0
"1505",15.7846755981,1.9353255033,15.9099586825,-0.6501687169,2,0
"1506",10.8379125595,-2.3346948624,11.1121288808,-0.1694702506,2,0
"1507",9.5181074142,-5.1675539017,11.2241065538,0.3368081152,2,0
"1508",7.193441391,-4.2237668037,10.2158602207,0.2494084984,2,0
"1509",10.5068006516,-2.0731887817,10.9720036824,0.0746092573,2,0
"1510",9.6957874298,-0.0571810901,9.7001221167,-0.1119145527,2,0
"1511",9.6800699234,2.2076091766,10.0529713504,-0.2621994019,2,0
"1512",9.9158296585,3.9954912663,10.8440391656,-0.5691641569,2,0
"1513",11.120973587,3.6759059429,11.7145825923,-0.755687952,2,0
"1514",11.3121261597,-1.8788927794,11.8573432157,-0.5084105134,2,1
"1515",10.0346832275,-2.5472528934,11.1235758695,0.1257701814,2,0
"1516",9.5628643036,-0.6381230354,9.9259907033,0.2366183996,2,0
"1517",10.5344934464,0.1532812566,10.6482809479,-0.0223830696,2,0
"1518",10.7427101135,0.4128414989,10.7891197783,-0.16840446,2,0
"1519",9.6595630646,0.1945953369,9.7099428166,-0.345335573,2,0
"1520",8.568780899,0.318836987,8.7518574514,-0.3357431293,2,0
"1521",8.3258361816,-0.3369493186,8.8474268734,-0.2643309832,2,0
"1522",10.4584512711,-0.7596702576,11.0661773604,-0.2547385395,2,0
"1523",11.3471536636,-0.774040401,11.7950795405,-0.2781874239,2,0
"1524",8.4749259949,0.4255650342,8.6242945286,-0.2643309832,2,0
"1525",5.9179434776,-0.3848496974,6.031636122,-0.1652070731,2,0
"1526",5.2639536858,-1.0611433983,6.5910720088,0.1566796303,2,0
"1527",10.1667079926,-2.3983125687,10.621488103,0.3815740049,2,0
"1528",12.4946670532,-0.5929170251,13.1099744257,0.5243977308,2,0
"1529",9.375453949,0.2926414609,10.0072464437,0.475368917,2,0
"1530",6.3694047928,0.1431024224,6.7681809458,0.443393141,2,0
"1531",6.730453968,0.1252894551,6.929469504,0.3911664188,2,0
"1532",11.2152776718,0.9077124,11.7479109835,0.2366183996,2,0
"1533",11.1242666245,0.4927752614,11.8993338775,0.1598770171,2,0
"1534",7.3494167328,-0.576451242,7.979181859,0.3016352057,2,0
"1535",4.8047084808,-2.1499791145,5.4185064664,0.5297272205,2,0
"1536",6.3414130211,-1.1322455406,6.4793896734,0.4114179015,2,0
"1537",11.7867889404,-0.5153782368,12.074946016,0.3048328757,5,4
"1538",12.5835819244,0.9301657081,13.9275123836,0.1140456125,2,0
"1539",12.882361412,0.3165916502,13.8386628942,-0.0415684842,2,0
"1540",12.8780202866,0.1625619531,13.2209009175,0.1971820444,2,0
"1541",14.1915388107,-0.8999285698,14.4804961475,0.6064680815,2,0
"1542",13.6225719452,-1.3480966091,13.7369505949,1.0168204308,2,0
"1543",12.2018756866,-2.1041743755,12.3980935139,1.2598341703,2,0
"1544",11.3420639038,-3.1716046333,11.8461570206,1.4495556355,2,0
"1545",10.8624610901,-3.9266345501,11.5704008585,1.591313839,2,0
"1546",11.5603103638,-3.6428246498,12.1865647177,1.7160181999,2,0
"1547",12.5648708344,-2.5436604023,13.1023142627,1.7852982283,2,0
"1548",11.649225235,-1.9444564581,12.2576712119,1.8375250101,2,0
"1549",10.6588850021,-1.7118401527,11.1979117082,1.7373352051,2,0
"1550",9.3974580765,-2.1779708862,9.8144179493,1.5604041815,2,0
"1551",8.9136638641,-2.1794676781,9.2664578403,1.2790198326,2,0
"1552",8.418343544,-2.2923331261,8.7993815291,1.0765082836,2,0
"1553",8.3717908859,-3.2581245899,9.0161530391,1.0200181007,2,0
"1554",7.9788579941,-4.1300616264,9.0177538918,0.984845221,2,0
"1555",5.7516393661,-4.5958929062,7.5786590703,0.542517364,2,0
"1556",5.2474880219,-4.1486229897,6.752444637,0.1438895315,2,0
"1557",5.5877304077,-3.5075061321,6.6406410845,-0.024514664,2,0
"1558",6.3601241112,-2.2608983517,6.7832256199,-0.3432039618,2,0
"1559",6.2146267891,-2.5667123795,6.7410942951,-0.4913569391,2,0
"1560",5.9851536751,-2.8045678139,6.6342878195,-0.5851519108,2,0
"1561",6.3905110359,-3.8231995106,7.5409045879,-0.7929927111,2,0
"1562",7.704179287,-4.72417593,9.1733359842,-0.8707998991,2,0
"1563",8.0598392487,-4.6241841316,9.4644330448,-0.8526802659,2,0
"1564",9.0955352783,-3.8231995106,9.9807569369,-0.8217705488,2,0
"1565",8.4276247025,-3.5268158913,9.2240823098,-0.8313634992,2,0
"1566",8.3234415054,-3.7262012959,9.2086051337,-0.8718656898,2,0
"1567",8.3958902359,-4.7855482101,9.6753420432,-1.0701135397,2,0
"1568",9.6691427231,-4.3406734467,10.6459804059,-1.2800861597,2,0
"1569",10.2481384277,-2.8211832047,10.6422840231,-1.1042208672,2,0
"1570",10.5451211929,-2.5189619064,10.8808949596,-0.563835144,2,0
"1571",9.0673942566,-2.7725343704,9.6018843073,-0.3378747106,2,0
"1572",8.3854122162,-3.111130476,9.212552124,-0.4124844968,2,0
"1573",9.6646518707,-3.8365218639,10.8612710519,-0.4444597363,2,0
"1574",9.1030197144,-4.3349852562,10.292880544,-0.2483432293,2,0
"1575",8.0634317398,-3.2081286907,8.6867745735,-0.050095126,2,0
"1576",7.9812526703,-3.4028737545,8.7409599472,-0.1417582035,2,1
"1577",8.0137357712,-3.3968861103,8.9767975009,-0.2590017319,2,0
"1578",7.9230241776,-3.6181261539,9.1313776173,-0.2057094872,2,0
"1579",7.2654414177,-4.0585103035,8.9854928822,0.0884651542,2,0
"1580",7.6332263947,-3.9269340038,8.8334167285,0.4657762349,2,0
"1581",11.5414495468,-7.1426968575,13.5756243652,0.5776902437,2,0
"1582",19.4138793945,-9.4812831879,21.8129253182,-0.1108487546,2,0
"1583",19.5436592102,-7.5666151047,21.5964018191,4.2250289917,2,0
"1584",3.2455508709,5.0762438774,9.8181765714,2.5655007362,2,0
"1585",-3.8637652397,-3.2343242168,7.9075750515,0.7492920756,2,0
"1586",2.1427941322,-3.4305660725,4.0724443063,-0.7098565102,2,0
"1587",10.4077072144,-3.6395316124,11.4319501242,-1.4548854828,2,0
"1588",18.7781505585,-1.1852352619,18.8333579994,-1.2129374743,2,0
"1589",18.3319282532,0.9168434143,18.3715999857,-1.0381382704,2,0
"1590",10.2433490753,-1.0083031654,10.8099891526,-1.1255376339,2,0
"1591",7.711663723,-3.8495447636,9.8020800037,-1.2790204287,2,0
"1592",6.3526396751,-5.6393728256,10.0091087818,-1.2939420938,2,0
"1593",6.563700676,-3.435505867,8.3081258867,-1.2982058525,2,0
"1594",9.2989625931,-1.194216609,9.5241304416,-0.8015193343,2,0
"1595",10.1194067001,0.9651928544,10.5954912493,-0.2590017319,2,0
"1596",8.2381191254,-0.1666035503,8.2727841271,-0.2621994019,2,0
"1597",8.2047386169,-3.9022352695,9.7023147024,-0.3698502183,2,0
"1598",10.7612714767,-1.3510904312,12.4047001944,-0.4060891867,2,0
"1599",12.3373441696,3.301833868,13.8523391015,-0.345335573,2,0
"1600",11.1027116776,1.6438815594,11.4226932259,-0.1257707179,2,0
"1601",9.484577179,-2.541564703,9.8491843104,0.2760547698,2,0
"1602",8.5195331573,-4.0549178123,9.4411088725,0.4263395965,2,0
"1603",10.6517000198,-3.2756383419,11.5178793534,0.1321649551,2,0
"1604",10.7954006195,-2.1086649895,11.6281576483,0.00959244,2,0
"1605",10.0092353821,-0.5498066545,10.1135509421,-0.0117248334,2,0
"1606",9.1630449295,-0.1119671613,9.1656916244,0.1470869184,2,0
"1607",7.7751317024,0.0411643982,7.7851707049,0.3389397264,2,0
"1608",7.7478880882,-0.6870712042,8.2354751807,0.284581393,2,0
"1609",7.7478880882,-0.6870712042,8.2354751807,0.1502843052,2,0
"1610",10.7801322937,-1.8471587896,11.6194306846,0.203576833,2,0
"1611",9.7499752045,-2.0618124008,10.348104154,0.5478466153,2,0
"1612",6.8184709549,-2.2498214245,7.1977574671,0.7695435882,2,0
"1613",7.0007915497,-2.0830681324,7.3098546647,0.6906706095,2,0
"1614",8.5178871155,-2.3706202507,8.9541087517,0.3378739059,2,0
"1615",9.0340137482,-2.2915847301,9.7668331284,0.0085263764,2,0
"1616",6.889872551,-0.8301736712,7.7912626383,0,2,0
"1617",8.7261037827,0.3920347691,9.4545977998,-0.1108487546,2,0
"1618",14.3193731308,-0.0633183271,14.978101895,-0.4945548773,2,0
"1619",12.0454511642,-0.4932243228,12.9081243673,-0.5979419947,2,0
"1620",6.4800248146,-1.7931212187,8.1106609876,0.2696599662,2,0
"1621",5.7070322037,-3.213966608,7.644809942,1.1852248907,2,0
"1622",11.674372673,-5.2236871719,12.8181157901,0.3549277484,2,0
"1623",13.7053499222,-0.2888992429,13.8097329799,-0.0586220361,2,1
"1624",8.3512830734,0.5800437927,8.3778066914,0.3645201623,2,0
"1625",6.8909201622,-0.6568341255,7.1464432733,0.2643304467,2,0
"1626",8.1736030579,-1.609602809,9.080045986,0.0383702926,2,0
"1627",14.1367521286,-1.7417778969,15.5448638382,-0.0095932391,2,0
"1628",13.0166320801,-1.738784194,15.5924064348,-0.2142358571,2,0
"1629",7.6134676933,-2.0788769722,8.1202726256,0.175864771,2,0
"1630",6.6365990639,-2.4357347488,7.0962433991,0.0479629971,2,0
"1631",7.9589490891,-2.155667305,8.2798674959,-0.1033876389,2,0
"1632",11.1091480255,-2.1772224903,11.3838238709,-0.1843922138,2,0
"1633",11.1856393814,-1.916015625,11.4224167055,-0.0181198809,2,0
"1634",9.2396860123,-2.0842657089,9.5570060556,0.1556138247,2,0
"1635",9.0292234421,-3.1841783524,9.6237082667,0.0980575904,2,0
"1636",9.5100240707,-3.331921339,10.1721337633,0.015987223,2,0
"1637",10.5180273056,-2.6496400833,11.1299962172,0.0223825369,2,0
"1638",10.159822464,-0.916693747,10.8152014384,-0.1875896007,5,4
"1639",9.3997030258,-2.14503932,9.9978192813,-0.1705365926,2,0
"1640",9.2798023224,-2.6518852711,9.9461413545,-0.1257707179,2,0
"1641",8.9633607864,-3.0939161777,9.7127388276,0.0554241091,2,0
"1642",8.3611631393,-2.9023146629,9.0026186206,0.1438895315,2,0
"1643",8.4642982483,-3.2135174274,9.1612114597,0.1236380562,2,0
"1644",9.684261322,-2.7092161179,10.2575863932,0.0735434592,2,0
"1645",10.8952436447,-1.167871356,11.3411980062,0.2824498117,2,0
"1646",10.6561899185,-1.5766712427,11.2539225204,0.1993136406,2,0
"1647",10.071805954,-2.4008574486,10.8265945212,0.0682139397,2,0
"1648",10.5704183578,-3.4410443306,11.450736636,-0.1556143612,2,0
"1649",10.5588922501,-2.9786558151,11.3004787918,0.0937944055,2,0
"1650",10.5541028976,-3.299438715,11.2858681142,0.4401957691,2,0
"1651",10.294093132,-3.2145652771,10.8766485258,0.6160607934,2,0
"1652",10.7915086746,-4.646337986,11.938202363,0.9539352655,2,0
"1653",10.6897201538,-3.584895134,11.718719401,1.0498620272,2,0
"1654",10.9771232605,-2.9696745872,11.8654554056,1.2033442259,2,0
"1655",11.7863397598,-3.3394057751,12.3761152285,1.5262967348,2,0
"1656",12.4680223465,-3.6063005924,12.9925997285,1.6019723415,2,0
"1657",11.5456409454,-2.9774582386,11.9258804092,1.5529429913,2,0
"1658",10.4496202469,-2.9891340733,10.871927814,1.4005266428,2,0
"1659",8.4433422089,-2.6417064667,8.8472850191,1.0797057152,2,0
"1660",8.635093689,-4.0733294487,9.5535379936,0.8931818604,2,0
"1661",9.913734436,-5.3606524467,11.4410434925,1.0711787939,2,0
"1662",9.0859556198,-5.7390656471,11.295995992,1.2235952616,2,0
"1663",6.2969555855,-6.2303438187,9.3666092008,0.7354362011,2,0
"1664",6.9394192696,-3.9535784721,8.0667656548,0.1374944746,2,0
"1665",7.2745723724,-3.8661603928,8.2454414489,-0.2057094872,2,0
"1666",7.2914872169,-3.3344659805,8.0177615406,-0.4178134799,2,0
"1667",6.3059368134,-2.9581484795,6.965435249,-0.5947445631,2,1
"1668",5.0219068527,-3.5621423721,6.1570158351,-0.8377583027,2,0
"1669",4.2155337334,-3.8660106659,5.7579953541,-1.1980158091,2,0
"1670",4.1685314178,-3.7461099625,5.676041011,-1.6104997396,2,0
"1671",4.8713202477,-3.1338829994,5.8438107084,-1.9771521091,2,0
"1672",6.0207796097,-2.0276834965,6.4409905017,-2.2500095367,2,0
"1673",7.9688286781,-1.6598982811,8.2054391267,-2.43227005,2,0
"1674",10.3631000519,-0.6908134222,10.4502398012,-2.5505793095,2,0
"1675",10.3146009445,-0.9077124,10.4417759708,-2.5548427105,2,0
"1676",9.5222978592,-1.6886384487,9.6858101632,-2.5068795681,2,0
"1677",10.3857030869,-2.3363416195,10.6569408741,-2.2254953384,2,0
"1678",11.1645336151,-4.2505607605,11.9614005768,-1.6115655899,2,0
"1679",10.7045402527,-5.6345829964,12.1242360926,-0.8963803649,2,0
"1680",11.7692756653,-5.4461245537,12.9751666637,-0.4540521801,2,0
"1681",12.5187673569,-3.3611104488,13.08165275,-0.0095932391,2,0
"1682",13.5635948181,-2.2228775024,13.814449121,0.5062783957,2,0
"1683",16.7715740204,-3.1067893505,17.0690234782,0.7844652534,2,0
"1684",17.4843902588,-4.0279736519,17.9446815709,1.1298007965,2,0
"1685",14.5177106857,-1.9161653519,14.6904506885,1.4399632215,2,0
"1686",8.5508184433,0.6957531571,8.7110907708,0.8974453211,2,0
"1687",9.1904382706,-4.2803487778,10.1856485568,0.3208203614,2,0
"1688",11.9174671173,-3.7664675713,13.2785251111,-0.16840446,2,0
"1689",11.9646196365,-1.4669494629,13.141678159,-0.4071549773,2,0
"1690",8.4143028259,0.0034428407,9.0122008804,-1.2267936468,2,0
"1691",8.709189415,-0.1110690311,9.3537075097,-1.3216542006,2,0
"1692",9.266330719,-1.4934443235,10.3201968052,-1.0999577045,2,0
"1693",10.3988752365,-1.7907261848,11.0073907472,-1.0178867579,2,0
"1694",11.106004715,-0.8054749966,11.140561311,-0.886787653,2,1
"1695",9.1175403595,-0.5459147692,9.2819486927,-0.4775010645,2,0
"1696",8.4719324112,-0.6692582965,8.7417655345,-0.1577459574,2,0
"1697",9.416768074,-2.4188201427,9.794093271,0.1545480341,2,0
"1698",10.3663930893,-3.3202455044,11.0932015297,0.1247038469,2,0
"1699",11.2736558914,-2.4040007591,12.0831829895,-0.1758655757,2,0
"1700",10.2002382278,0.7472460866,11.0806763029,-0.16840446,2,0
"1701",9.4676618576,0.7223977447,10.3966265562,-0.1396266073,2,0
"1702",9.6558208466,0.1222956851,10.8756057746,-0.2067752779,2,0
"1703",10.0752487183,-1.9622694254,11.0736469209,-0.3943648934,2,0
"1704",9.9915723801,-2.4213647842,10.4791849084,-0.3901014328,2,0
"1705",8.7249069214,-1.1479628086,8.853793746,-0.3325457275,2,0
"1706",9.0058717728,-0.6267466545,9.156758265,-0.2515411675,2,0
"1707",9.7299165726,-0.5502557158,9.8554977798,-0.1769313663,2,0
"1708",10.3824100494,-0.5013075471,10.6023832269,-0.2440800518,2,0
"1709",9.8126945496,-1.2100836039,10.0495958693,-0.2526069582,2,0
"1710",9.440867424,-1.2455598116,9.5895772303,-0.2291580886,2,0
"1711",9.4580821991,-0.7113208175,9.5608231813,-0.114046149,2,0
"1712",9.6962366104,-0.4092489481,10.0155194972,-0.1481535137,2,0
"1713",9.8267650604,-0.7441026568,10.306496092,-0.1897217333,2,0
"1714",10.4300107956,-0.8388555646,11.1301864364,-0.2526069582,2,0
"1715",10.2485876083,-0.6144722104,10.6919749746,-0.2376847267,2,0
"1716",10.1167125702,-0.8761280775,10.3929541709,-0.2366189361,2,0
"1717",9.6228895187,-0.0579295345,9.6273194528,-0.1492193192,2,0
"1718",9.8598461151,0.0633183271,9.863572474,-0.0937952027,2,0
"1719",10.0140256882,0.0773890689,10.0155911021,-0.0309099797,2,0
"1720",10.193652153,-0.8464897275,10.3869229484,0.0511603914,2,0
"1721",10.2446956635,-0.0362246707,10.4915610415,0.0682139397,2,0
"1722",10.3273239136,0.4830454886,10.6803697146,0.1087166294,2,0
"1723",10.0242042542,-0.0646655262,10.201743063,0.0831361637,5,4
"1724",9.9710655212,-0.5526507497,10.0690388729,0.0660823509,2,0
"1725",10.1340761185,-0.694405973,10.2573941241,0.0341068394,2,0
"1726",9.5814256668,-0.2595602274,9.6418171397,0.0170530193,2,0
"1727",9.0861053467,0.3279680014,9.2974658426,-0.0127906296,2,0
"1728",10.2569704056,-0.3365002573,10.7093482421,-0.1247046515,2,0
"1729",10.8444986343,-0.0109272767,11.2947926904,-0.2344873399,2,0
"1730",9.7468309402,0.5713618398,10.0344883335,-0.2547385395,2,0
"1731",9.6659994125,0.2387535125,9.8647771143,-0.2536727488,2,0
"1732",9.62408638,-0.3384461999,9.7006832865,-0.2472774386,2,0
"1733",8.9974899292,-0.9725276232,9.0523056044,-0.0618194267,2,0
"1734",9.7344074249,-1.5218852758,9.8671206172,0.2387499958,2,0
"1735",13.3350200653,-1.5820600986,13.5206429224,0.4242080152,2,0
"1736",13.6938238144,-1.5144008398,13.8492935827,0.6149950027,2,0
"1737",11.8116378784,-2.0493881702,12.035778115,1.1436564922,2,0
"1738",10.2643051147,-2.1529729366,10.4947740174,1.8023520708,2,0
"1739",10.1092281342,-2.3399341106,10.3844219766,2.2894456387,2,0
"1740",11.1329488754,-1.8964064121,11.2939682383,2.4386644363,2,0
"1741",12.4698190689,-2.3683748245,12.7290884828,2.1615431309,2,0
"1742",11.1028614044,-1.1268566847,11.3593461195,1.7767715454,2,0
"1743",10.1732940674,-0.979413271,10.3715601355,1.5177698135,2,0
"1744",6.7472190857,-1.6149916649,7.4808226499,0.1556138247,2,0
"1745",8.0749578476,-1.5691868067,9.1520207243,-0.2110384703,2,0
"1746",8.4833087921,-1.4769786596,9.5440755632,-0.1897217333,2,0
"1747",6.2833337784,-3.9514827728,7.6563852726,-0.1502851099,2,0
"1748",4.9304471016,-5.2428474426,7.2009854066,-0.640576005,2,0
"1749",4.0143523216,-4.9362850189,6.4007136543,-1.0221505165,2,0
"1750",3.8904099464,-3.6700680256,5.465016862,-1.5188364983,2,0
"1751",5.8802218437,-2.7747797966,6.5079830738,-1.6104997396,2,0
"1752",7.4631800652,-3.0831384659,8.1190093036,-1.3525640965,0,0
"1753",8.0960645676,-3.5229239464,8.9373890263,-1.2193328142,0,0
"1754",10.8229436874,-1.4206956625,11.1671390339,-1.0413357019,0,0
"1755",17.364938736,2.7517278194,17.7085784297,-0.6597614288,0,0
"1756",17.8545703888,2.1776714325,18.2972069115,-0.3741134107,0,0
"1757",11.8424730301,-1.7542021275,11.9754865129,-0.3389405012,0,0
"1758",10.3449878693,-2.990032196,10.8293185106,-0.0426342785,0,0
"1759",12.0110225677,-3.073558569,12.407931812,0.1545480341,0,0
"1760",10.4548587799,-2.6319768429,11.0989668494,-0.1204414591,0,0
"1761",8.4717826843,-0.5397775173,9.1991702328,-0.5659667253,0,0
"1762",8.8079833984,-0.4114942849,9.6074308088,-0.8047172427,0,0
"1763",9.4711046219,-0.3896397352,9.9825088118,-0.6459054947,0,1
"1764",9.2658815384,0.5751040578,9.6693098028,-0.6267203689,0,0
"1765",10.2147579193,0.3055146933,10.4152968663,-0.7002637982,0,0
"1766",9.4827804565,-1.2283456326,9.7900475861,-0.6022056937,0,0
"1767",10.068063736,-2.0296294689,10.4587711886,-0.3751792014,0,0
"1768",10.3747758865,-1.7562977076,10.8341796153,-0.2717921138,0,0
"1769",10.1364707947,-1.5033237934,10.5047106394,-0.1769313663,0,0
"1770",10.0891695023,-1.2238550186,10.4029656803,-0.1321654916,0,0
"1771",9.1874446869,-1.2680131197,9.5769161687,-0.0873998851,0,0
"1772",10.0122299194,-0.7539820671,10.6267375647,-0.0937952027,0,0
"1773",10.0453109741,-0.5614823699,10.7636617745,-0.1065850332,0,0
"1774",9.8908319473,-0.6174659729,10.4203507483,-0.1097829565,0,0
"1775",9.616601944,-0.495918721,9.8699799344,-0.1641412675,0,0
"1776",9.626332283,-0.5131329298,9.775756073,-0.2206311822,0,0
"1777",9.6430969238,-0.4716691673,9.7302013775,-0.2280922979,0,0
"1778",10.2804718018,-1.0903326273,10.4435053013,-0.1758655757,0,0
"1779",10.1545829773,-1.4560221434,10.3491716726,-0.0767413825,0,0
"1780",10.4078569412,-0.6991960406,10.493168016,-0.0127906296,0,0
"1781",10.0325870514,-0.3791615367,10.1392255149,-0.0596878305,0,0
"1782",9.5913047791,-0.0513432324,9.7739421614,-0.1183098629,0,0
"1783",10.040520668,0.4028123617,10.2982623218,-0.158811748,0,0
"1784",10.7460031509,0.7313790917,10.9793510832,-0.2803190053,0,0
"1785",10.7253465652,0.6173163056,10.8516848333,-0.3741134107,0,1
"1786",10.1250944138,0.4170327783,10.1409391052,-0.4274059236,0,0
"1787",8.576415062,0.5954617262,8.5973070586,-0.3133603036,0,0
"1788",9.0464382172,0.1731898487,9.0534820939,-0.289911449,0,0
"1789",9.5249929428,-0.0955014005,9.5539109296,-0.3122942448,0,0
"1790",9.7460832596,-0.6625222564,9.7835932353,-0.2494090348,0,0
"1791",10.5744600296,-1.0554552078,10.7610821046,-0.1289681047,0,0
"1792",10.5644311905,-0.632434845,10.7142584373,-0.0266462583,0,0
"1793",10.1369199753,0.8126600385,10.3326171709,-0.0447661392,0,0
"1794",10.227481842,0.5457651019,10.3528636417,0.0405018851,0,0
"1795",9.9680709839,-0.2850073278,10.0031920107,0.1449553221,0,0
"1796",10.0242042542,-0.4631369114,10.0548066293,0.198247835,0,0
"1797",10.8832683563,-0.6737489104,10.9155730265,0.2685939074,0,0
"1798",10.6825351715,0.0245489497,10.6946087669,0.2483427078,0,0
"1799",10.9000329971,0.166154474,10.9035109439,0.1833258867,0,0
"1800",10.1683549881,0.5616320968,10.189555891,0.3112276495,0,0
"1801",9.4941568375,0.4409829676,9.5215871389,0.475368917,0,0
"1802",10.2728376389,-0.4441264272,10.4496341915,0.5286614299,0,0
"1803",10.9262285233,-0.8017327785,11.1626156723,0.4604469836,0,0
"1804",9.8326034546,0.0392184444,9.8403988902,0.3378739059,0,0
"1805",9.137298584,-0.6577322483,9.1614263179,0.4071544409,0,0
"1806",9.1602010727,-1.1253597736,9.2543984343,0.4156810939,0,0
"1807",12.4026088715,-0.6137237549,12.7900610961,0.4348665178,0,0
"1808",12.0547323227,0.0118254088,12.3344567964,0.2835156024,0,0
"1809",10.2559223175,-0.3275189102,10.2625175894,0.4338006973,0,0
"1810",9.7725782394,-1.0820997953,9.9007171679,0.5233319402,0,0
"1811",11.0302619934,-1.3711487055,11.201048761,0.3837055862,0,0
"1812",9.5844192505,-1.085392952,9.6459368597,0.353861928,0,0
"1813",7.917634964,-2.3558011055,8.6008222852,0.2973720431,0,0
"1814",6.5753765106,-2.4960594177,8.2320583494,0.0842019618,0,0
"1815",6.7452731133,-1.3780343533,9.0879059461,-0.1705365926,0,0
"1816",10.2647542953,-1.1996054649,11.0573525387,-0.3815745115,0,0
"1817",11.2212648392,-1.3102253675,11.5226548993,-0.4934890866,0,0
"1818",11.2212648392,-1.3102253675,11.5226548993,-0.4934890866,0,0
"1819",8.3244895935,-2.9440777302,8.9045961149,0.3058986664,0,0
"1820",9.1977729797,-3.5920801163,9.8743888569,0.2003794312,0,0
"1821",12.1006860733,-2.8636949062,12.4349258289,0.0426334813,0,0
"1822",13.2520923615,-1.6919316053,13.3793898179,0.0426334813,0,4
"1823",12.1899013519,-0.689466238,12.3065908746,0.1747989804,0,0
"1824",9.2667798996,-1.3695020676,9.4748877848,0.40289101,0,0
"1825",6.7888326645,-2.0929477215,7.2549468954,0.5009493828,0,0
"1826",5.8580679893,-2.4141798019,6.6874064501,0.3027010262,0,0
"1827",7.4604859352,-1.8095870018,7.7161885695,-0.0170538183,0,0
"1828",9.1352033615,-1.7760566473,9.3215050906,-0.2142358571,0,0
"1829",11.9872226715,-1.3642630577,12.0697903912,-0.361323595,0,0
"1830",15.1323318481,-0.2198927253,15.1397738852,-0.4071549773,0,0
"1831",13.0402822495,-0.6566843987,13.0569490018,-0.082070902,0,0
"1832",9.27531147,-2.2101540565,9.5405088386,0.2995036244,0,0
"1833",6.6900382042,-3.5893857479,7.6079704351,0.2568693459,0,0
"1834",5.7913069725,-3.6664755344,6.9074288998,-0.1161777377,0,0
"1835",6.9729495049,-2.2589523792,7.3297341213,-0.4135502875,0,0
"1836",8.2743434906,-1.436113596,8.5886583816,-0.529727757,0,0
"1837",10.4345016479,-0.4610412717,10.9567290511,-0.5926129818,0,0
"1838",11.3419141769,0.0014968872,11.9844380244,-0.6277861595,0,0
"1839",10.4800071716,-1.3989907503,10.8536852085,-0.4007596672,0,0
"1840",10.3460350037,-2.1445903778,10.6540650396,-0.1396266073,0,0
"1841",9.2441768646,-1.63969028,9.3910807723,0.0181193482,0,0
"1842",9.0218887329,-1.420396328,9.1539066167,0.1545480341,0,0
"1843",10.3714828491,-1.276096344,10.6250603169,0.1673381329,0,0
"1844",9.6514797211,-0.9755213857,10.0018846643,0.1492185146,0,0
"1845",9.1693325043,-1.3124706745,9.2844857378,0.0873993561,0,1
"1846",10.9371557236,-0.9256750345,11.0722127399,-0.1161777377,0,0
"1847",11.0774145126,-0.5336402655,11.1840920825,-0.2163679898,0,0
"1848",10.6861276627,-0.841999054,10.7493452716,-0.3432039618,0,0
"1849",11.3152694702,-1.6935782433,11.4640631389,-0.1012560502,0,0
"1850",11.3613739014,-1.8633252382,11.5177766816,0.0010657971,0,0
"1851",10.1324291229,-1.5678396225,10.3148638241,0.0202509426,0,0
"1852",9.6793212891,-1.278341651,9.9218346302,0.1502843052,0,0
"1853",10.094707489,-1.3862671852,10.3826067512,0.2121037394,0,0
"1854",10.7174129486,-1.9061361551,10.9815550395,0.4455247521,0,0
"1855",9.7013263702,-1.1829899549,9.9213820928,0.5382541418,0,0
"1856",9.1539144516,-0.4400848448,9.3736856175,0.5105418563,0,0
"1857",9.4161691666,-1.2750484943,9.6762555237,0.5201345086,0,0
"1858",10.4846467972,-1.7787510157,10.668898786,0.5958098769,0,0
"1859",9.8330516815,-1.5813117027,9.9775164573,0.6171268821,0,0
"1860",8.8457050323,-1.2665162086,9.0158763302,0.8430870175,0,0
"1861",9.6393547058,-2.0886068344,10.1282279438,0.9784499407,0,0
"1862",9.3642272949,-3.2049851418,10.0576937552,1.1937515736,0,0
"1863",8.3985853195,-3.9672002792,9.3425773982,1.3301802874,0,0
"1864",6.9837274551,-3.1945068836,7.7977947541,1.3685511351,0,0
"1865",6.9657645226,-3.7416193485,8.0297888232,1.3003365993,0,0
"1866",7.319029808,-3.1257998943,8.1971960531,1.2417148352,0,0
"1867",5.8423509598,-2.4971072674,6.5693050887,0.9635279775,0,1
"1868",5.7878642082,-1.5935860872,6.0683788622,1.2395832539,0,0
